File: Br-Cl_phases/XRD/000s.dat
10.0116 367
10.0642 356
10.1167 356
10.1692 416
10.2217 368
10.2742 359
10.3268 370
10.3793 361
10.4318 363
10.4843 361
10.5368 370
10.5894 328
10.6419 375
10.6944 333
10.7469 363
10.7994 361
10.852 421
10.9045 345
10.957 360
11.0095 344
11.0621 335
11.1146 354
11.1671 367
11.2196 343
11.2721 333
11.3247 344
11.3772 338
11.4297 360
11.4822 313
11.5347 320
11.5873 347
11.6398 346
11.6923 309
11.7448 356
11.7973 342
11.8499 328
11.9024 355
11.9549 325
12.0074 308
12.06 315
12.1125 294
12.165 376
12.2175 328
12.27 326
12.3226 337
12.3751 338
12.4276 325
12.4801 329
12.5326 340
12.5852 339
12.6377 365
12.6902 344
12.7427 312
12.7953 314
12.8478 339
12.9003 322
12.9528 342
13.0053 318
13.0579 351
13.1104 334
13.1629 317
13.2154 303
13.2679 293
13.3205 301
13.373 311
13.4255 282
13.478 344
13.5305 279
13.5831 300
13.6356 308
13.6881 301
13.7406 296
13.7932 286
13.8457 291
13.8982 263
13.9507 282
14.0032 269
14.0558 291
14.1083 266
14.1608 283
14.2133 308
14.2658 296
14.3184 274
14.3709 276
14.4234 299
14.4759 320
14.5284 322
14.581 421
14.6335 423
14.686 427
14.7385 460
14.7911 477
14.8436 529
14.8961 584
14.9486 586
15.0011 668
15.0537 644
15.1062 578
15.1587 575
15.2112 619
15.2637 588
15.3163 573
15.3688 628
15.4213 575
15.4738 563
15.5263 530
15.5789 453
15.6314 422
15.6839 367
15.7364 307
15.789 296
15.8415 278
15.894 265
15.9465 310
15.999 283
16.0516 287
16.1041 255
16.1566 239
16.2091 270
16.2616 274
16.3142 263
16.3667 253
16.4192 285
16.4717 275
16.5243 279
16.5768 272
16.6293 285
16.6818 263
16.7343 259
16.7869 252
16.8394 272
16.8919 267
16.9444 276
16.9969 272
17.0495 238
17.102 231
17.1545 245
17.207 253
17.2595 292
17.3121 247
17.3646 281
17.4171 300
17.4696 274
17.5222 281
17.5747 264
17.6272 304
17.6797 281
17.7322 260
17.7848 250
17.8373 277
17.8898 271
17.9423 254
17.9948 298
18.0474 264
18.0999 283
18.1524 248
18.2049 249
18.2574 295
18.31 284
18.3625 282
18.415 292
18.4675 236
18.5201 249
18.5726 282
18.6251 269
18.6776 308
18.7301 286
18.7827 266
18.8352 267
18.8877 305
18.9402 238
18.9927 279
19.0453 266
19.0978 298
19.1503 291
19.2028 298
19.2553 275
19.3079 309
19.3604 301
19.4129 289
19.4654 312
19.518 296
19.5705 306
19.623 281
19.6755 314
19.728 293
19.7806 306
19.8331 302
19.8856 272
19.9381 302
19.9906 313
20.0432 289
20.0957 323
20.1482 321
20.2007 337
20.2533 292
20.3058 320
20.3583 335
20.4108 308
20.4633 299
20.5159 362
20.5684 332
20.6209 363
20.6734 400
20.7259 410
20.7785 397
20.831 514
20.8835 539
20.936 578
20.9885 566
21.0411 649
21.0936 609
21.1461 655
21.1986 750
21.2512 686
21.3037 755
21.3562 731
21.4087 724
21.4612 781
21.5138 766
21.5663 753
21.6188 818
21.6713 799
21.7238 738
21.7764 765
21.8289 753
21.8814 756
21.9339 748
21.9864 678
22.039 656
22.0915 587
22.144 612
22.1965 552
22.2491 484
22.3016 384
22.3541 377
22.4066 315
22.4591 355
22.5117 277
22.5642 307
22.6167 292
22.6692 302
22.7217 301
22.7743 245
22.8268 297
22.8793 260
22.9318 297
22.9843 277
23.0369 249
23.0894 275
23.1419 264
23.1944 277
23.247 292
23.2995 295
23.352 255
23.4045 257
23.457 289
23.5096 274
23.5621 280
23.6146 270
23.6671 272
23.7196 272
23.7722 261
23.8247 285
23.8772 331
23.9297 319
23.9823 292
24.0348 296
24.0873 295
24.1398 299
24.1923 281
24.2449 289
24.2974 284
24.3499 272
24.4024 283
24.4549 271
24.5075 292
24.56 294
24.6125 302
24.665 289
24.7175 269
24.7701 266
24.8226 277
24.8751 279
24.9276 269
24.9802 270
25.0327 257
25.0852 250
25.1377 267
25.1902 249
25.2428 223
25.2953 267
25.3478 229
25.4003 250
25.4528 247
25.5054 230
25.5579 246
25.6104 272
25.6629 239
25.7154 248
25.768 249
25.8205 245
25.873 225
25.9255 258
25.9781 255
26.0306 248
26.0831 254
26.1356 228
26.1881 231
26.2407 217
26.2932 218
26.3457 214
26.3982 231
26.4507 205
26.5033 200
26.5558 204
26.6083 204
26.6608 218
26.7133 228
26.7659 227
26.8184 223
26.8709 231
26.9234 214
26.976 216
27.0285 195
27.081 210
27.1335 182
27.186 206
27.2386 193
27.2911 180
27.3436 182
27.3961 155
27.4486 165
27.5012 189
27.5537 187
27.6062 193
27.6587 199
27.7113 185
27.7638 243
27.8163 198
27.8688 180
27.9213 169
27.9739 187
28.0264 232
28.0789 215
28.1314 206
28.1839 198
28.2365 206
28.289 212
28.3415 210
28.394 207
28.4465 229
28.4991 211
28.5516 200
28.6041 203
28.6566 231
28.7092 218
28.7617 207
28.8142 212
28.8667 199
28.9192 200
28.9718 212
29.0243 235
29.0768 195
29.1293 235
29.1818 231
29.2344 222
29.2869 193
29.3394 244
29.3919 248
29.4444 283
29.497 305
29.5495 314
29.602 305
29.6545 344
29.7071 377
29.7596 360
29.8121 388
29.8646 402
29.9171 440
29.9697 439
30.0222 467
30.0747 484
30.1272 560
30.1797 577
30.2323 560
30.2848 594
30.3373 580
30.3898 599
30.4424 593
30.4949 574
30.5474 586
30.5999 547
30.6524 592
30.705 567
30.7575 610
30.81 599
30.8625 615
30.915 576
30.9676 612
31.0201 610
31.0726 574
31.1251 562
31.1776 587
31.2302 561
31.2827 505
31.3352 549
31.3877 492
31.4403 539
31.4928 481
31.5453 432
31.5978 321
31.6503 287
31.7029 234
31.7554 201
31.8079 199
31.8604 166
31.9129 185
31.9655 163
32.018 195
32.0705 160
32.123 169
32.1755 138
32.2281 153
32.2806 141
32.3331 142
32.3856 142
32.4382 145
32.4907 161
32.5432 140
32.5957 138
32.6482 152
32.7008 146
32.7533 124
32.8058 138
32.8583 147
32.9108 138
32.9634 157
33.0159 141
33.0684 166
33.1209 161
33.1734 175
33.226 183
33.2785 190
33.331 188
33.3835 202
33.4361 203
33.4886 200
33.5411 201
33.5936 201
33.6461 212
33.6987 229
33.7512 224
33.8037 210
33.8562 209
33.9087 251
33.9613 221
34.0138 258
34.0663 227
34.1188 275
34.1714 247
34.2239 229
34.2764 249
34.3289 261
34.3814 208
34.434 245
34.4865 231
34.539 232
34.5915 230
34.644 224
34.6966 232
34.7491 248
34.8016 218
34.8541 234
34.9066 223
34.9592 264
35.0117 209
35.0642 214
35.1167 208
35.1693 206
35.2218 204
35.2743 201
35.3268 207
35.3793 176
35.4319 177
35.4844 171
35.5369 170
35.5894 131
35.6419 138
35.6945 140
35.747 139
35.7995 112
35.852 120
35.9045 122
35.9571 136
36.0096 118
36.0621 125
36.1146 148
36.1672 118
36.2197 139
36.2722 153
36.3247 179
36.3772 161
36.4298 183
36.4823 171
36.5348 178
36.5873 167
36.6398 192
36.6924 197
36.7449 210
36.7974 191
36.8499 226
36.9024 215
36.955 251
37.0075 217
37.06 234
37.1125 249
37.1651 245
37.2176 250
37.2701 251
37.3226 270
37.3751 292
37.4277 270
37.4802 296
37.5327 266
37.5852 287
37.6377 298
37.6903 317
37.7428 274
37.7953 295
37.8478 308
37.9004 286
37.9529 292
38.0054 296
38.0579 303
38.1104 301
38.163 307
38.2155 310
38.268 280
38.3205 264
38.373 284
38.4256 274
38.4781 282
38.5306 256
38.5831 259
38.6356 265
38.6882 254
38.7407 262
38.7932 238
38.8457 183
38.8983 209
38.9508 178
39.0033 164
39.0558 134
39.1083 137
39.1609 120
39.2134 136
39.2659 107
39.3184 115
39.3709 95
39.4235 104
39.476 118
39.5285 120
39.581 107
39.6335 106
39.6861 135
39.7386 116
39.7911 110
39.8436 97
39.8962 106
39.9487 115
40.0012 100
40.0537 115
40.1062 126
40.1588 94
40.2113 111
40.2638 101
40.3163 104
40.3688 118
40.4214 86
40.4739 118
40.5264 88
40.5789 87
40.6314 95
40.684 115
40.7365 88
40.789 104
40.8415 74
40.8941 84
40.9466 113
40.9991 120
41.0516 81
41.1041 110
41.1567 88
41.2092 91
41.2617 100
41.3142 105
41.3667 105
41.4193 104
41.4718 111
41.5243 107
41.5768 93
41.6294 102
41.6819 105
41.7344 97
41.7869 102
41.8394 122
41.892 99
41.9445 104
41.997 104
42.0495 123
42.102 94
42.1546 106
42.2071 110
42.2596 116
42.3121 123
42.3646 136
42.4172 139
42.4697 163
42.5222 134
42.5747 166
42.6273 120
42.6798 167
42.7323 137
42.7848 155
42.8373 157
42.8899 164
42.9424 176
42.9949 201
43.0474 167
43.0999 182
43.1525 191
43.205 205
43.2575 163
43.31 177
43.3625 189
43.4151 195
43.4676 202
43.5201 200
43.5726 235
43.6252 214
43.6777 187
43.7302 210
43.7827 197
43.8352 209
43.8878 217
43.9403 207
43.9928 223
44.0453 226
44.0978 229
44.1504 234
44.2029 215
44.2554 210
44.3079 212
44.3604 204
44.413 241
44.4655 217
44.518 226
44.5705 202
44.6231 218
44.6756 234
44.7281 205
44.7806 215
44.8331 192
44.8857 228
44.9382 209
44.9907 167
45.0432 205
45.0957 167
45.1483 184
45.2008 166
45.2533 144
45.3058 169
45.3584 141
45.4109 132
45.4634 139
45.5159 136
45.5684 132
45.621 130
45.6735 133
45.726 137
45.7785 120
45.831 121
45.8836 132
45.9361 137
45.9886 140
46.0411 170
46.0936 165
46.1462 124
46.1987 157
46.2512 165
46.3037 162
46.3563 146
46.4088 145
46.4613 139
46.5138 135
46.5663 134
46.6189 145
46.6714 141
46.7239 121
46.7764 139
46.8289 148
46.8815 125
46.934 139
46.9865 124
47.039 135
47.0915 131
47.1441 138
47.1966 145
47.2491 135
47.3016 142
47.3542 125
47.4067 138
47.4592 119
47.5117 139
47.5642 117
47.6168 124
47.6693 128
47.7218 142
47.7743 136
47.8268 132
47.8794 124
47.9319 111
47.9844 134
48.0369 123
48.0895 125
48.142 122
48.1945 140
48.247 121
48.2995 127
48.3521 144
48.4046 103
48.4571 114
48.5096 122
48.5621 129
48.6147 131
48.6672 109
48.7197 127
48.7722 133
48.8247 131
48.8773 136
48.9298 132
48.9823 144
49.0348 136
49.0874 125
49.1399 161
49.1924 129
49.2449 155
49.2974 150
49.35 149
49.4025 150
49.455 120
49.5075 157
49.56 128
49.6126 152
49.6651 143
49.7176 139
49.7701 149
49.8226 146
49.8752 144
49.9277 144
49.9802 149
50.0065 122