File: Br-Cl_phases/XRD/008s.dat
10.0116 366
10.0642 404
10.1167 387
10.1692 359
10.2217 372
10.2742 360
10.3268 346
10.3793 395
10.4318 373
10.4843 331
10.5368 373
10.5894 368
10.6419 386
10.6944 366
10.7469 348
10.7994 368
10.852 355
10.9045 338
10.957 380
11.0095 353
11.0621 334
11.1146 367
11.1671 338
11.2196 382
11.2721 377
11.3247 362
11.3772 345
11.4297 377
11.4822 356
11.5347 333
11.5873 338
11.6398 313
11.6923 326
11.7448 337
11.7973 340
11.8499 333
11.9024 358
11.9549 333
12.0074 305
12.06 329
12.1125 319
12.165 307
12.2175 362
12.27 321
12.3226 353
12.3751 385
12.4276 356
12.4801 354
12.5326 352
12.5852 325
12.6377 325
12.6902 371
12.7427 359
12.7953 319
12.8478 355
12.9003 356
12.9528 318
13.0053 343
13.0579 332
13.1104 313
13.1629 306
13.2154 347
13.2679 313
13.3205 271
13.373 329
13.4255 300
13.478 308
13.5305 290
13.5831 283
13.6356 307
13.6881 319
13.7406 307
13.7932 311
13.8457 292
13.8982 303
13.9507 282
14.0032 277
14.0558 289
14.1083 318
14.1608 297
14.2133 282
14.2658 269
14.3184 311
14.3709 334
14.4234 343
14.4759 323
14.5284 320
14.581 318
14.6335 367
14.686 412
14.7385 460
14.7911 484
14.8436 562
14.8961 676
14.9486 714
15.0011 791
15.0537 748
15.1062 825
15.1587 845
15.2112 843
15.2637 924
15.3163 896
15.3688 875
15.4213 815
15.4738 860
15.5263 831
15.5789 843
15.6314 798
15.6839 734
15.7364 684
15.789 584
15.8415 535
15.894 432
15.9465 344
15.999 302
16.0516 319
16.1041 293
16.1566 276
16.2091 281
16.2616 275
16.3142 307
16.3667 278
16.4192 289
16.4717 291
16.5243 255
16.5768 251
16.6293 275
16.6818 238
16.7343 242
16.7869 279
16.8394 271
16.8919 275
16.9444 257
16.9969 287
17.0495 281
17.102 266
17.1545 296
17.207 271
17.2595 252
17.3121 275
17.3646 271
17.4171 267
17.4696 257
17.5222 293
17.5747 245
17.6272 273
17.6797 258
17.7322 289
17.7848 258
17.8373 273
17.8898 278
17.9423 288
17.9948 247
18.0474 253
18.0999 300
18.1524 273
18.2049 276
18.2574 242
18.31 239
18.3625 273
18.415 267
18.4675 279
18.5201 283
18.5726 261
18.6251 279
18.6776 322
18.7301 275
18.7827 296
18.8352 285
18.8877 255
18.9402 301
18.9927 272
19.0453 266
19.0978 277
19.1503 326
19.2028 317
19.2553 268
19.3079 334
19.3604 302
19.4129 303
19.4654 288
19.518 291
19.5705 285
19.623 304
19.6755 322
19.728 313
19.7806 323
19.8331 306
19.8856 323
19.9381 293
19.9906 298
20.0432 310
20.0957 295
20.1482 313
20.2007 335
20.2533 310
20.3058 272
20.3583 301
20.4108 300
20.4633 328
20.5159 330
20.5684 336
20.6209 323
20.6734 316
20.7259 351
20.7785 332
20.831 367
20.8835 362
20.936 413
20.9885 460
21.0411 455
21.0936 478
21.1461 497
21.1986 563
21.2512 541
21.3037 556
21.3562 597
21.4087 571
21.4612 588
21.5138 668
21.5663 608
21.6188 635
21.6713 598
21.7238 615
21.7764 650
21.8289 620
21.8814 629
21.9339 611
21.9864 619
22.039 641
22.0915 571
22.144 576
22.1965 587
22.2491 588
22.3016 512
22.3541 475
22.4066 493
22.4591 420
22.5117 403
22.5642 357
22.6167 313
22.6692 312
22.7217 288
22.7743 277
22.8268 260
22.8793 282
22.9318 267
22.9843 303
23.0369 287
23.0894 242
23.1419 276
23.1944 270
23.247 290
23.2995 257
23.352 282
23.4045 282
23.457 265
23.5096 263
23.5621 242
23.6146 253
23.6671 274
23.7196 303
23.7722 283
23.8247 289
23.8772 306
23.9297 268
23.9823 264
24.0348 300
24.0873 325
24.1398 290
24.1923 293
24.2449 277
24.2974 275
24.3499 286
24.4024 272
24.4549 271
24.5075 285
24.56 272
24.6125 247
24.665 259
24.7175 279
24.7701 241
24.8226 252
24.8751 284
24.9276 269
24.9802 254
25.0327 245
25.0852 235
25.1377 247
25.1902 273
25.2428 241
25.2953 249
25.3478 217
25.4003 236
25.4528 259
25.5054 221
25.5579 227
25.6104 236
25.6629 238
25.7154 250
25.768 227
25.8205 248
25.873 273
25.9255 216
25.9781 238
26.0306 225
26.0831 225
26.1356 238
26.1881 225
26.2407 221
26.2932 226
26.3457 237
26.3982 213
26.4507 222
26.5033 194
26.5558 186
26.6083 181
26.6608 221
26.7133 214
26.7659 211
26.8184 221
26.8709 204
26.9234 196
26.976 194
27.0285 194
27.081 193
27.1335 196
27.186 200
27.2386 191
27.2911 184
27.3436 200
27.3961 202
27.4486 204
27.5012 207
27.5537 194
27.6062 183
27.6587 204
27.7113 224
27.7638 198
27.8163 207
27.8688 217
27.9213 184
27.9739 226
28.0264 196
28.0789 202
28.1314 218
28.1839 204
28.2365 208
28.289 207
28.3415 201
28.394 204
28.4465 207
28.4991 198
28.5516 188
28.6041 206
28.6566 181
28.7092 218
28.7617 184
28.8142 199
28.8667 193
28.9192 178
28.9718 211
29.0243 230
29.0768 221
29.1293 196
29.1818 215
29.2344 209
29.2869 234
29.3394 190
29.3919 241
29.4444 223
29.497 193
29.5495 214
29.602 229
29.6545 298
29.7071 279
29.7596 305
29.8121 305
29.8646 392
29.9171 351
29.9697 405
30.0222 421
30.0747 522
30.1272 530
30.1797 519
30.2323 576
30.2848 642
30.3373 675
30.3898 707
30.4424 711
30.4949 757
30.5474 759
30.5999 735
30.6524 777
30.705 740
30.7575 770
30.81 807
30.8625 807
30.915 828
30.9676 835
31.0201 822
31.0726 846
31.1251 837
31.1776 837
31.2302 765
31.2827 808
31.3352 835
31.3877 796
31.4403 819
31.4928 721
31.5453 736
31.5978 779
31.6503 682
31.7029 698
31.7554 623
31.8079 646
31.8604 576
31.9129 561
31.9655 435
32.018 408
32.0705 335
32.123 289
32.1755 251
32.2281 189
32.2806 209
32.3331 199
32.3856 169
32.4382 164
32.4907 170
32.5432 179
32.5957 180
32.6482 161
32.7008 151
32.7533 159
32.8058 173
32.8583 163
32.9108 152
32.9634 161
33.0159 127
33.0684 146
33.1209 161
33.1734 166
33.226 181
33.2785 182
33.331 152
33.3835 181
33.4361 154
33.4886 186
33.5411 143
33.5936 168
33.6461 211
33.6987 163
33.7512 178
33.8037 193
33.8562 207
33.9087 180
33.9613 196
34.0138 215
34.0663 204
34.1188 197
34.1714 189
34.2239 201
34.2764 224
34.3289 222
34.3814 216
34.434 228
34.4865 233
34.539 231
34.5915 199
34.644 215
34.6966 215
34.7491 242
34.8016 222
34.8541 209
34.9066 240
34.9592 222
35.0117 211
35.0642 211
35.1167 225
35.1693 204
35.2218 199
35.2743 231
35.3268 211
35.3793 201
35.4319 197
35.4844 165
35.5369 173
35.5894 182
35.6419 171
35.6945 186
35.747 176
35.7995 177
35.852 157
35.9045 156
35.9571 134
36.0096 140
36.0621 122
36.1146 128
36.1672 133
36.2197 114
36.2722 136
36.3247 121
36.3772 118
36.4298 132
36.4823 163
36.5348 143
36.5873 131
36.6398 127
36.6924 143
36.7449 145
36.7974 148
36.8499 165
36.9024 164
36.955 155
37.0075 178
37.06 197
37.1125 227
37.1651 198
37.2176 183
37.2701 220
37.3226 214
37.3751 224
37.4277 217
37.4802 230
37.5327 215
37.5852 244
37.6377 255
37.6903 275
37.7428 228
37.7953 257
37.8478 264
37.9004 265
37.9529 259
38.0054 235
38.0579 253
38.1104 259
38.163 237
38.2155 273
38.268 260
38.3205 246
38.373 277
38.4256 264
38.4781 251
38.5306 255
38.5831 268
38.6356 276
38.6882 260
38.7407 242
38.7932 258
38.8457 235
38.8983 257
38.9508 216
39.0033 213
39.0558 231
39.1083 224
39.1609 221
39.2134 203
39.2659 227
39.3184 187
39.3709 172
39.4235 167
39.476 143
39.5285 146
39.581 117
39.6335 122
39.6861 113
39.7386 109
39.7911 113
39.8436 121
39.8962 146
39.9487 122
40.0012 117
40.0537 98
40.1062 108
40.1588 116
40.2113 105
40.2638 83
40.3163 91
40.3688 107
40.4214 109
40.4739 109
40.5264 102
40.5789 98
40.6314 99
40.684 103
40.7365 123
40.789 106
40.8415 116
40.8941 105
40.9466 108
40.9991 98
41.0516 122
41.1041 102
41.1567 111
41.2092 112
41.2617 125
41.3142 102
41.3667 110
41.4193 100
41.4718 118
41.5243 113
41.5768 92
41.6294 97
41.6819 87
41.7344 99
41.7869 105
41.8394 99
41.892 98
41.9445 97
41.997 86
42.0495 96
42.102 97
42.1546 100
42.2071 101
42.2596 112
42.3121 114
42.3646 104
42.4172 94
42.4697 106
42.5222 101
42.5747 111
42.6273 115
42.6798 89
42.7323 127
42.7848 126
42.8373 136
42.8899 120
42.9424 139
42.9949 112
43.0474 121
43.0999 121
43.1525 112
43.205 136
43.2575 144
43.31 164
43.3625 145
43.4151 142
43.4676 173
43.5201 154
43.5726 165
43.6252 177
43.6777 185
43.7302 164
43.7827 160
43.8352 152
43.8878 167
43.9403 167
43.9928 170
44.0453 163
44.0978 161
44.1504 165
44.2029 180
44.2554 178
44.3079 175
44.3604 155
44.413 159
44.4655 159
44.518 174
44.5705 193
44.6231 188
44.6756 188
44.7281 163
44.7806 174
44.8331 164
44.8857 165
44.9382 187
44.9907 190
45.0432 172
45.0957 160
45.1483 175
45.2008 160
45.2533 159
45.3058 171
45.3584 171
45.4109 154
45.4634 179
45.5159 161
45.5684 157
45.621 139
45.6735 159
45.726 150
45.7785 120
45.831 118
45.8836 118
45.9361 129
45.9886 108
46.0411 111
46.0936 132
46.1462 108
46.1987 122
46.2512 112
46.3037 139
46.3563 122
46.4088 131
46.4613 135
46.5138 122
46.5663 150
46.6189 127
46.6714 135
46.7239 126
46.7764 111
46.8289 127
46.8815 121
46.934 130
46.9865 126
47.039 143
47.0915 139
47.1441 130
47.1966 107
47.2491 163
47.3016 110
47.3542 114
47.4067 131
47.4592 134
47.5117 123
47.5642 102
47.6168 122
47.6693 122
47.7218 118
47.7743 111
47.8268 123
47.8794 116
47.9319 110
47.9844 112
48.0369 110
48.0895 140
48.142 130
48.1945 103
48.247 109
48.2995 147
48.3521 126
48.4046 119
48.4571 125
48.5096 136
48.5621 135
48.6147 117
48.6672 123
48.7197 109
48.7722 115
48.8247 128
48.8773 140
48.9298 134
48.9823 132
49.0348 117
49.0874 139
49.1399 118
49.1924 140
49.2449 131
49.2974 135
49.35 140
49.4025 131
49.455 141
49.5075 140
49.56 147
49.6126 143
49.6651 153
49.7176 129
49.7701 157
49.8226 130
49.8752 135
49.9277 129
49.9802 129
50.0065 152