File: Br-Cl_phases/XRD/013s.dat
10.0116 340
10.0642 383
10.1167 422
10.1692 371
10.2217 356
10.2742 379
10.3268 404
10.3793 380
10.4318 400
10.4843 350
10.5368 359
10.5894 343
10.6419 363
10.6944 369
10.7469 370
10.7994 368
10.852 356
10.9045 361
10.957 346
11.0095 349
11.0621 349
11.1146 350
11.1671 357
11.2196 351
11.2721 367
11.3247 363
11.3772 352
11.4297 379
11.4822 360
11.5347 364
11.5873 354
11.6398 333
11.6923 329
11.7448 324
11.7973 307
11.8499 338
11.9024 321
11.9549 314
12.0074 360
12.06 329
12.1125 353
12.165 315
12.2175 326
12.27 328
12.3226 312
12.3751 350
12.4276 352
12.4801 380
12.5326 326
12.5852 333
12.6377 302
12.6902 340
12.7427 280
12.7953 361
12.8478 323
12.9003 319
12.9528 317
13.0053 329
13.0579 324
13.1104 315
13.1629 297
13.2154 330
13.2679 273
13.3205 311
13.373 299
13.4255 299
13.478 305
13.5305 291
13.5831 357
13.6356 319
13.6881 283
13.7406 293
13.7932 283
13.8457 307
13.8982 282
13.9507 282
14.0032 325
14.0558 288
14.1083 287
14.1608 292
14.2133 290
14.2658 300
14.3184 273
14.3709 327
14.4234 296
14.4759 286
14.5284 276
14.581 283
14.6335 280
14.686 309
14.7385 296
14.7911 294
14.8436 304
14.8961 304
14.9486 300
15.0011 341
15.0537 400
15.1062 440
15.1587 465
15.2112 515
15.2637 564
15.3163 573
15.3688 605
15.4213 637
15.4738 633
15.5263 629
15.5789 651
15.6314 649
15.6839 685
15.7364 698
15.789 649
15.8415 596
15.894 615
15.9465 509
15.999 411
16.0516 394
16.1041 307
16.1566 299
16.2091 275
16.2616 256
16.3142 281
16.3667 271
16.4192 238
16.4717 267
16.5243 254
16.5768 291
16.6293 276
16.6818 272
16.7343 271
16.7869 270
16.8394 241
16.8919 278
16.9444 236
16.9969 261
17.0495 255
17.102 237
17.1545 248
17.207 288
17.2595 274
17.3121 283
17.3646 258
17.4171 294
17.4696 271
17.5222 267
17.5747 276
17.6272 257
17.6797 287
17.7322 255
17.7848 274
17.8373 274
17.8898 277
17.9423 280
17.9948 256
18.0474 296
18.0999 292
18.1524 271
18.2049 274
18.2574 278
18.31 296
18.3625 273
18.415 294
18.4675 281
18.5201 280
18.5726 285
18.6251 271
18.6776 288
18.7301 230
18.7827 295
18.8352 316
18.8877 270
18.9402 308
18.9927 287
19.0453 307
19.0978 252
19.1503 265
19.2028 261
19.2553 284
19.3079 289
19.3604 286
19.4129 283
19.4654 301
19.518 290
19.5705 307
19.623 288
19.6755 317
19.728 291
19.7806 309
19.8331 293
19.8856 313
19.9381 274
19.9906 290
20.0432 322
20.0957 293
20.1482 280
20.2007 307
20.2533 307
20.3058 355
20.3583 308
20.4108 312
20.4633 309
20.5159 297
20.5684 282
20.6209 317
20.6734 318
20.7259 298
20.7785 351
20.831 359
20.8835 298
20.936 314
20.9885 340
21.0411 345
21.0936 332
21.1461 329
21.1986 378
21.2512 399
21.3037 453
21.3562 572
21.4087 611
21.4612 728
21.5138 905
21.5663 921
21.6188 1037
21.6713 1039
21.7238 1055
21.7764 1082
21.8289 1106
21.8814 1095
21.9339 1075
21.9864 1094
22.039 1151
22.0915 1097
22.144 1081
22.1965 1094
22.2491 1111
22.3016 1088
22.3541 1068
22.4066 1072
22.4591 1000
22.5117 997
22.5642 957
22.6167 829
22.6692 706
22.7217 583
22.7743 459
22.8268 428
22.8793 344
22.9318 329
22.9843 290
23.0369 283
23.0894 305
23.1419 333
23.1944 283
23.247 276
23.2995 277
23.352 294
23.4045 273
23.457 281
23.5096 262
23.5621 235
23.6146 257
23.6671 239
23.7196 232
23.7722 248
23.8247 221
23.8772 272
23.9297 268
23.9823 237
24.0348 260
24.0873 241
24.1398 238
24.1923 235
24.2449 242
24.2974 257
24.3499 247
24.4024 223
24.4549 246
24.5075 230
24.56 247
24.6125 217
24.665 231
24.7175 220
24.7701 263
24.8226 245
24.8751 244
24.9276 251
24.9802 233
25.0327 210
25.0852 253
25.1377 221
25.1902 262
25.2428 265
25.2953 250
25.3478 239
25.4003 255
25.4528 218
25.5054 260
25.5579 220
25.6104 239
25.6629 200
25.7154 228
25.768 246
25.8205 248
25.873 224
25.9255 213
25.9781 214
26.0306 216
26.0831 213
26.1356 199
26.1881 198
26.2407 207
26.2932 198
26.3457 208
26.3982 206
26.4507 224
26.5033 183
26.5558 176
26.6083 205
26.6608 195
26.7133 190
26.7659 188
26.8184 195
26.8709 181
26.9234 198
26.976 204
27.0285 173
27.081 206
27.1335 196
27.186 200
27.2386 190
27.2911 171
27.3436 193
27.3961 167
27.4486 192
27.5012 175
27.5537 201
27.6062 189
27.6587 180
27.7113 203
27.7638 187
27.8163 175
27.8688 184
27.9213 202
27.9739 192
28.0264 194
28.0789 169
28.1314 193
28.1839 201
28.2365 191
28.289 166
28.3415 184
28.394 174
28.4465 162
28.4991 193
28.5516 189
28.6041 170
28.6566 166
28.7092 165
28.7617 193
28.8142 188
28.8667 200
28.9192 177
28.9718 181
29.0243 182
29.0768 186
29.1293 150
29.1818 181
29.2344 181
29.2869 187
29.3394 166
29.3919 166
29.4444 198
29.497 172
29.5495 195
29.602 198
29.6545 168
29.7071 167
29.7596 163
29.8121 175
29.8646 170
29.9171 184
29.9697 165
30.0222 173
30.0747 184
30.1272 186
30.1797 215
30.2323 192
30.2848 212
30.3373 230
30.3898 232
30.4424 254
30.4949 235
30.5474 274
30.5999 319
30.6524 373
30.705 369
30.7575 442
30.81 436
30.8625 455
30.915 478
30.9676 477
31.0201 499
31.0726 543
31.1251 500
31.1776 521
31.2302 491
31.2827 544
31.3352 535
31.3877 503
31.4403 580
31.4928 539
31.5453 552
31.5978 557
31.6503 578
31.7029 564
31.7554 556
31.8079 529
31.8604 534
31.9129 555
31.9655 557
32.018 553
32.0705 502
32.123 479
32.1755 417
32.2281 431
32.2806 378
32.3331 309
32.3856 277
32.4382 225
32.4907 185
32.5432 165
32.5957 156
32.6482 146
32.7008 163
32.7533 162
32.8058 151
32.8583 132
32.9108 157
32.9634 145
33.0159 165
33.0684 131
33.1209 135
33.1734 141
33.226 136
33.2785 134
33.331 158
33.3835 122
33.4361 134
33.4886 130
33.5411 128
33.5936 140
33.6461 141
33.6987 131
33.7512 115
33.8037 129
33.8562 140
33.9087 137
33.9613 138
34.0138 133
34.0663 133
34.1188 126
34.1714 138
34.2239 156
34.2764 156
34.3289 156
34.3814 168
34.434 159
34.4865 170
34.539 175
34.5915 162
34.644 187
34.6966 181
34.7491 189
34.8016 182
34.8541 201
34.9066 203
34.9592 179
35.0117 189
35.0642 199
35.1167 197
35.1693 207
35.2218 184
35.2743 184
35.3268 196
35.3793 201
35.4319 207
35.4844 208
35.5369 210
35.5894 181
35.6419 199
35.6945 162
35.747 173
35.7995 160
35.852 185
35.9045 164
35.9571 178
36.0096 181
36.0621 158
36.1146 162
36.1672 151
36.2197 147
36.2722 162
36.3247 135
36.3772 120
36.4298 132
36.4823 119
36.5348 128
36.5873 115
36.6398 124
36.6924 130
36.7449 121
36.7974 127
36.8499 118
36.9024 119
36.955 111
37.0075 118
37.06 125
37.1125 118
37.1651 113
37.2176 123
37.2701 118
37.3226 129
37.3751 137
37.4277 139
37.4802 138
37.5327 175
37.5852 167
37.6377 184
37.6903 201
37.7428 193
37.7953 201
37.8478 231
37.9004 229
37.9529 225
38.0054 241
38.0579 256
38.1104 242
38.163 279
38.2155 290
38.268 269
38.3205 268
38.373 295
38.4256 279
38.4781 296
38.5306 287
38.5831 283
38.6356 296
38.6882 292
38.7407 320
38.7932 306
38.8457 330
38.8983 273
38.9508 295
39.0033 330
39.0558 298
39.1083 294
39.1609 292
39.2134 289
39.2659 291
39.3184 259
39.3709 279
39.4235 307
39.476 280
39.5285 278
39.581 276
39.6335 240
39.6861 218
39.7386 225
39.7911 172
39.8436 189
39.8962 155
39.9487 134
40.0012 131
40.0537 117
40.1062 117
40.1588 101
40.2113 104
40.2638 106
40.3163 127
40.3688 96
40.4214 103
40.4739 117
40.5264 102
40.5789 100
40.6314 107
40.684 93
40.7365 98
40.789 107
40.8415 97
40.8941 110
40.9466 97
40.9991 102
41.0516 98
41.1041 89
41.1567 115
41.2092 114
41.2617 97
41.3142 100
41.3667 101
41.4193 91
41.4718 106
41.5243 97
41.5768 105
41.6294 91
41.6819 103
41.7344 82
41.7869 109
41.8394 93
41.892 109
41.9445 91
41.997 112
42.0495 110
42.102 105
42.1546 80
42.2071 96
42.2596 109
42.3121 127
42.3646 104
42.4172 122
42.4697 100
42.5222 119
42.5747 105
42.6273 88
42.6798 110
42.7323 90
42.7848 85
42.8373 105
42.8899 81
42.9424 95
42.9949 100
43.0474 111
43.0999 100
43.1525 106
43.205 87
43.2575 104
43.31 117
43.3625 112
43.4151 115
43.4676 98
43.5201 107
43.5726 95
43.6252 122
43.6777 115
43.7302 121
43.7827 134
43.8352 120
43.8878 173
43.9403 151
43.9928 165
44.0453 154
44.0978 151
44.1504 165
44.2029 165
44.2554 155
44.3079 171
44.3604 166
44.413 174
44.4655 160
44.518 184
44.5705 184
44.6231 177
44.6756 209
44.7281 204
44.7806 180
44.8331 201
44.8857 202
44.9382 196
44.9907 207
45.0432 200
45.0957 172
45.1483 205
45.2008 197
45.2533 174
45.3058 161
45.3584 199
45.4109 220
45.4634 199
45.5159 211
45.5684 180
45.621 189
45.6735 180
45.726 190
45.7785 167
45.831 182
45.8836 162
45.9361 173
45.9886 148
46.0411 174
46.0936 148
46.1462 152
46.1987 159
46.2512 142
46.3037 109
46.3563 127
46.4088 122
46.4613 105
46.5138 104
46.5663 116
46.6189 117
46.6714 125
46.7239 114
46.7764 118
46.8289 119
46.8815 107
46.934 113
46.9865 117
47.039 110
47.0915 101
47.1441 124
47.1966 107
47.2491 121
47.3016 85
47.3542 132
47.4067 90
47.4592 121
47.5117 121
47.5642 109
47.6168 124
47.6693 94
47.7218 125
47.7743 98
47.8268 145
47.8794 122
47.9319 106
47.9844 112
48.0369 116
48.0895 136
48.142 91
48.1945 128
48.247 102
48.2995 122
48.3521 122
48.4046 129
48.4571 110
48.5096 115
48.5621 110
48.6147 98
48.6672 118
48.7197 124
48.7722 130
48.8247 117
48.8773 108
48.9298 116
48.9823 107
49.0348 108
49.0874 118
49.1399 97
49.1924 115
49.2449 111
49.2974 143
49.35 112
49.4025 106
49.455 118
49.5075 119
49.56 132
49.6126 118
49.6651 139
49.7176 144
49.7701 112
49.8226 132
49.8752 131
49.9277 105
49.9802 126
50.0065 142