File: Br-Cl_phases/XRD/025s.dat
10.0116 382
10.0642 339
10.1167 355
10.1692 373
10.2217 355
10.2742 402
10.3268 378
10.3793 375
10.4318 354
10.4843 355
10.5368 345
10.5894 351
10.6419 379
10.6944 365
10.7469 373
10.7994 349
10.852 342
10.9045 361
10.957 354
11.0095 331
11.0621 345
11.1146 345
11.1671 385
11.2196 350
11.2721 364
11.3247 344
11.3772 342
11.4297 342
11.4822 383
11.5347 353
11.5873 368
11.6398 323
11.6923 330
11.7448 345
11.7973 340
11.8499 335
11.9024 328
11.9549 322
12.0074 313
12.06 376
12.1125 315
12.165 339
12.2175 342
12.27 303
12.3226 299
12.3751 344
12.4276 334
12.4801 309
12.5326 340
12.5852 350
12.6377 344
12.6902 315
12.7427 344
12.7953 344
12.8478 352
12.9003 333
12.9528 297
13.0053 336
13.0579 331
13.1104 324
13.1629 319
13.2154 295
13.2679 271
13.3205 302
13.373 307
13.4255 315
13.478 290
13.5305 298
13.5831 285
13.6356 290
13.6881 301
13.7406 317
13.7932 309
13.8457 299
13.8982 293
13.9507 282
14.0032 287
14.0558 287
14.1083 306
14.1608 261
14.2133 282
14.2658 323
14.3184 273
14.3709 298
14.4234 279
14.4759 275
14.5284 331
14.581 315
14.6335 337
14.686 356
14.7385 410
14.7911 433
14.8436 388
14.8961 478
14.9486 456
15.0011 555
15.0537 511
15.1062 509
15.1587 506
15.2112 553
15.2637 607
15.3163 519
15.3688 547
15.4213 516
15.4738 485
15.5263 516
15.5789 501
15.6314 527
15.6839 487
15.7364 479
15.789 407
15.8415 339
15.894 317
15.9465 277
15.999 275
16.0516 275
16.1041 256
16.1566 281
16.2091 252
16.2616 258
16.3142 233
16.3667 290
16.4192 300
16.4717 261
16.5243 235
16.5768 286
16.6293 279
16.6818 263
16.7343 275
16.7869 277
16.8394 285
16.8919 265
16.9444 271
16.9969 281
17.0495 266
17.102 285
17.1545 259
17.207 256
17.2595 264
17.3121 257
17.3646 296
17.4171 280
17.4696 273
17.5222 252
17.5747 255
17.6272 270
17.6797 276
17.7322 258
17.7848 279
17.8373 272
17.8898 259
17.9423 252
17.9948 284
18.0474 241
18.0999 268
18.1524 308
18.2049 254
18.2574 257
18.31 261
18.3625 253
18.415 328
18.4675 279
18.5201 265
18.5726 303
18.6251 270
18.6776 299
18.7301 269
18.7827 277
18.8352 294
18.8877 281
18.9402 280
18.9927 284
19.0453 273
19.0978 305
19.1503 281
19.2028 323
19.2553 300
19.3079 243
19.3604 295
19.4129 257
19.4654 318
19.518 300
19.5705 290
19.623 305
19.6755 312
19.728 303
19.7806 279
19.8331 303
19.8856 299
19.9381 316
19.9906 286
20.0432 317
20.0957 323
20.1482 306
20.2007 286
20.2533 287
20.3058 302
20.3583 287
20.4108 309
20.4633 290
20.5159 307
20.5684 301
20.6209 309
20.6734 294
20.7259 330
20.7785 334
20.831 342
20.8835 369
20.936 408
20.9885 413
21.0411 427
21.0936 531
21.1461 574
21.1986 638
21.2512 638
21.3037 651
21.3562 766
21.4087 733
21.4612 748
21.5138 733
21.5663 670
21.6188 764
21.6713 769
21.7238 715
21.7764 794
21.8289 754
21.8814 792
21.9339 772
21.9864 752
22.039 744
22.0915 737
22.144 734
22.1965 682
22.2491 678
22.3016 618
22.3541 612
22.4066 539
22.4591 441
22.5117 417
22.5642 313
22.6167 321
22.6692 324
22.7217 279
22.7743 319
22.8268 301
22.8793 303
22.9318 309
22.9843 278
23.0369 286
23.0894 280
23.1419 285
23.1944 265
23.247 256
23.2995 268
23.352 265
23.4045 273
23.457 277
23.5096 250
23.5621 266
23.6146 261
23.6671 239
23.7196 277
23.7722 282
23.8247 278
23.8772 255
23.9297 272
23.9823 262
24.0348 282
24.0873 275
24.1398 266
24.1923 287
24.2449 266
24.2974 272
24.3499 244
24.4024 254
24.4549 281
24.5075 269
24.56 260
24.6125 284
24.665 256
24.7175 254
24.7701 252
24.8226 287
24.8751 249
24.9276 250
24.9802 287
25.0327 251
25.0852 266
25.1377 253
25.1902 273
25.2428 248
25.2953 229
25.3478 236
25.4003 230
25.4528 243
25.5054 232
25.5579 241
25.6104 213
25.6629 223
25.7154 227
25.768 247
25.8205 258
25.873 243
25.9255 223
25.9781 229
26.0306 236
26.0831 229
26.1356 224
26.1881 226
26.2407 225
26.2932 241
26.3457 230
26.3982 231
26.4507 218
26.5033 198
26.5558 237
26.6083 230
26.6608 225
26.7133 217
26.7659 213
26.8184 227
26.8709 215
26.9234 221
26.976 216
27.0285 193
27.081 204
27.1335 209
27.186 205
27.2386 195
27.2911 196
27.3436 180
27.3961 214
27.4486 209
27.5012 185
27.5537 206
27.6062 192
27.6587 190
27.7113 196
27.7638 205
27.8163 220
27.8688 155
27.9213 192
27.9739 210
28.0264 189
28.0789 201
28.1314 208
28.1839 210
28.2365 222
28.289 172
28.3415 215
28.394 201
28.4465 206
28.4991 214
28.5516 192
28.6041 189
28.6566 205
28.7092 190
28.7617 192
28.8142 201
28.8667 182
28.9192 198
28.9718 204
29.0243 179
29.0768 204
29.1293 179
29.1818 225
29.2344 192
29.2869 187
29.3394 206
29.3919 208
29.4444 213
29.497 214
29.5495 235
29.602 211
29.6545 244
29.7071 276
29.7596 290
29.8121 274
29.8646 305
29.9171 298
29.9697 328
30.0222 359
30.0747 417
30.1272 415
30.1797 476
30.2323 452
30.2848 475
30.3373 506
30.3898 540
30.4424 552
30.4949 547
30.5474 577
30.5999 578
30.6524 563
30.705 568
30.7575 605
30.81 588
30.8625 577
30.915 569
30.9676 580
31.0201 549
31.0726 616
31.1251 553
31.1776 566
31.2302 574
31.2827 555
31.3352 539
31.3877 611
31.4403 570
31.4928 540
31.5453 520
31.5978 528
31.6503 480
31.7029 442
31.7554 455
31.8079 428
31.8604 394
31.9129 360
31.9655 328
32.018 247
32.0705 229
32.123 193
32.1755 191
32.2281 170
32.2806 140
32.3331 163
32.3856 157
32.4382 145
32.4907 161
32.5432 142
32.5957 127
32.6482 151
32.7008 132
32.7533 136
32.8058 141
32.8583 139
32.9108 133
32.9634 149
33.0159 127
33.0684 132
33.1209 122
33.1734 167
33.226 134
33.2785 125
33.331 142
33.3835 146
33.4361 157
33.4886 144
33.5411 161
33.5936 154
33.6461 166
33.6987 175
33.7512 204
33.8037 165
33.8562 215
33.9087 172
33.9613 198
34.0138 184
34.0663 198
34.1188 198
34.1714 223
34.2239 186
34.2764 210
34.3289 185
34.3814 214
34.434 226
34.4865 208
34.539 211
34.5915 221
34.644 215
34.6966 209
34.7491 212
34.8016 206
34.8541 191
34.9066 194
34.9592 236
35.0117 193
35.0642 208
35.1167 221
35.1693 206
35.2218 218
35.2743 171
35.3268 183
35.3793 198
35.4319 189
35.4844 204
35.5369 165
35.5894 183
35.6419 168
35.6945 165
35.747 176
35.7995 154
35.852 131
35.9045 148
35.9571 126
36.0096 148
36.0621 152
36.1146 129
36.1672 122
36.2197 119
36.2722 144
36.3247 127
36.3772 124
36.4298 145
36.4823 114
36.5348 127
36.5873 167
36.6398 133
36.6924 136
36.7449 137
36.7974 123
36.8499 143
36.9024 177
36.955 183
37.0075 193
37.06 181
37.1125 215
37.1651 226
37.2176 223
37.2701 211
37.3226 253
37.3751 251
37.4277 273
37.4802 242
37.5327 240
37.5852 281
37.6377 271
37.6903 274
37.7428 267
37.7953 285
37.8478 268
37.9004 271
37.9529 276
38.0054 284
38.0579 330
38.1104 277
38.163 293
38.2155 298
38.268 294
38.3205 288
38.373 276
38.4256 253
38.4781 298
38.5306 328
38.5831 261
38.6356 280
38.6882 272
38.7407 246
38.7932 275
38.8457 251
38.8983 252
38.9508 245
39.0033 221
39.0558 210
39.1083 220
39.1609 225
39.2134 193
39.2659 173
39.3184 176
39.3709 172
39.4235 168
39.476 137
39.5285 128
39.581 103
39.6335 122
39.6861 130
39.7386 108
39.7911 115
39.8436 118
39.8962 111
39.9487 123
40.0012 102
40.0537 107
40.1062 110
40.1588 117
40.2113 113
40.2638 105
40.3163 123
40.3688 110
40.4214 108
40.4739 99
40.5264 105
40.5789 79
40.6314 97
40.684 110
40.7365 98
40.789 90
40.8415 95
40.8941 122
40.9466 85
40.9991 95
41.0516 88
41.1041 85
41.1567 101
41.2092 110
41.2617 111
41.3142 83
41.3667 97
41.4193 103
41.4718 96
41.5243 108
41.5768 96
41.6294 86
41.6819 94
41.7344 92
41.7869 105
41.8394 96
41.892 105
41.9445 88
41.997 110
42.0495 107
42.102 95
42.1546 119
42.2071 94
42.2596 95
42.3121 112
42.3646 99
42.4172 115
42.4697 94
42.5222 126
42.5747 87
42.6273 112
42.6798 123
42.7323 98
42.7848 125
42.8373 123
42.8899 118
42.9424 125
42.9949 147
43.0474 137
43.0999 151
43.1525 159
43.205 161
43.2575 175
43.31 137
43.3625 157
43.4151 167
43.4676 186
43.5201 180
43.5726 187
43.6252 201
43.6777 177
43.7302 176
43.7827 181
43.8352 188
43.8878 207
43.9403 210
43.9928 166
44.0453 209
44.0978 188
44.1504 186
44.2029 205
44.2554 191
44.3079 207
44.3604 206
44.413 198
44.4655 201
44.518 184
44.5705 208
44.6231 193
44.6756 223
44.7281 215
44.7806 180
44.8331 202
44.8857 200
44.9382 206
44.9907 195
45.0432 181
45.0957 183
45.1483 201
45.2008 182
45.2533 153
45.3058 197
45.3584 188
45.4109 180
45.4634 184
45.5159 171
45.5684 133
45.621 157
45.6735 137
45.726 147
45.7785 141
45.831 129
45.8836 148
45.9361 112
45.9886 123
46.0411 122
46.0936 127
46.1462 115
46.1987 125
46.2512 121
46.3037 130
46.3563 120
46.4088 125
46.4613 126
46.5138 135
46.5663 133
46.6189 144
46.6714 136
46.7239 139
46.7764 140
46.8289 120
46.8815 129
46.934 132
46.9865 134
47.039 117
47.0915 125
47.1441 114
47.1966 120
47.2491 132
47.3016 112
47.3542 116
47.4067 122
47.4592 125
47.5117 107
47.5642 121
47.6168 114
47.6693 139
47.7218 127
47.7743 125
47.8268 120
47.8794 122
47.9319 115
47.9844 128
48.0369 122
48.0895 107
48.142 110
48.1945 112
48.247 130
48.2995 115
48.3521 114
48.4046 126
48.4571 128
48.5096 120
48.5621 114
48.6147 114
48.6672 110
48.7197 132
48.7722 117
48.8247 135
48.8773 123
48.9298 129
48.9823 127
49.0348 113
49.0874 117
49.1399 148
49.1924 104
49.2449 128
49.2974 156
49.35 135
49.4025 141
49.455 142
49.5075 146
49.56 136
49.6126 142
49.6651 116
49.7176 118
49.7701 139
49.8226 143
49.8752 126
49.9277 136
49.9802 142
50.0065 126