File: Br-Cl_phases/XRD/120s.dat
10.0116 371
10.0642 372
10.1167 362
10.1692 370
10.2217 355
10.2742 364
10.3268 382
10.3793 369
10.4318 322
10.4843 364
10.5368 361
10.5894 380
10.6419 341
10.6944 369
10.7469 349
10.7994 351
10.852 367
10.9045 373
10.957 382
11.0095 383
11.0621 362
11.1146 355
11.1671 361
11.2196 365
11.2721 348
11.3247 347
11.3772 332
11.4297 341
11.4822 334
11.5347 317
11.5873 334
11.6398 313
11.6923 329
11.7448 344
11.7973 347
11.8499 314
11.9024 314
11.9549 324
12.0074 330
12.06 321
12.1125 314
12.165 357
12.2175 354
12.27 344
12.3226 342
12.3751 298
12.4276 345
12.4801 340
12.5326 362
12.5852 338
12.6377 343
12.6902 321
12.7427 321
12.7953 366
12.8478 338
12.9003 322
12.9528 336
13.0053 332
13.0579 331
13.1104 330
13.1629 314
13.2154 281
13.2679 293
13.3205 320
13.373 258
13.4255 307
13.478 269
13.5305 295
13.5831 303
13.6356 244
13.6881 291
13.7406 269
13.7932 290
13.8457 290
13.8982 273
13.9507 288
14.0032 292
14.0558 284
14.1083 268
14.1608 303
14.2133 303
14.2658 301
14.3184 269
14.3709 290
14.4234 281
14.4759 286
14.5284 280
14.581 313
14.6335 327
14.686 333
14.7385 341
14.7911 275
14.8436 355
14.8961 390
14.9486 396
15.0011 426
15.0537 446
15.1062 522
15.1587 541
15.2112 570
15.2637 560
15.3163 595
15.3688 601
15.4213 590
15.4738 603
15.5263 567
15.5789 575
15.6314 600
15.6839 549
15.7364 566
15.789 496
15.8415 505
15.894 424
15.9465 368
15.999 312
16.0516 306
16.1041 264
16.1566 271
16.2091 258
16.2616 280
16.3142 247
16.3667 277
16.4192 276
16.4717 251
16.5243 266
16.5768 263
16.6293 245
16.6818 265
16.7343 261
16.7869 299
16.8394 245
16.8919 274
16.9444 261
16.9969 256
17.0495 263
17.102 309
17.1545 306
17.207 256
17.2595 243
17.3121 294
17.3646 266
17.4171 265
17.4696 279
17.5222 285
17.5747 273
17.6272 254
17.6797 273
17.7322 292
17.7848 275
17.8373 298
17.8898 284
17.9423 231
17.9948 293
18.0474 292
18.0999 275
18.1524 283
18.2049 279
18.2574 285
18.31 270
18.3625 263
18.415 258
18.4675 279
18.5201 283
18.5726 291
18.6251 286
18.6776 309
18.7301 293
18.7827 277
18.8352 249
18.8877 280
18.9402 295
18.9927 254
19.0453 276
19.0978 278
19.1503 267
19.2028 271
19.2553 298
19.3079 320
19.3604 299
19.4129 278
19.4654 276
19.518 271
19.5705 291
19.623 331
19.6755 314
19.728 309
19.7806 313
19.8331 313
19.8856 321
19.9381 307
19.9906 306
20.0432 278
20.0957 282
20.1482 276
20.2007 313
20.2533 335
20.3058 284
20.3583 302
20.4108 316
20.4633 322
20.5159 311
20.5684 324
20.6209 334
20.6734 298
20.7259 321
20.7785 336
20.831 328
20.8835 376
20.936 365
20.9885 370
21.0411 410
21.0936 473
21.1461 537
21.1986 575
21.2512 627
21.3037 643
21.3562 737
21.4087 751
21.4612 817
21.5138 850
21.5663 874
21.6188 919
21.6713 999
21.7238 982
21.7764 1010
21.8289 982
21.8814 1012
21.9339 1014
21.9864 967
22.039 976
22.0915 999
22.144 1050
22.1965 919
22.2491 948
22.3016 916
22.3541 932
22.4066 829
22.4591 785
22.5117 696
22.5642 611
22.6167 481
22.6692 421
22.7217 371
22.7743 376
22.8268 338
22.8793 295
22.9318 272
22.9843 283
23.0369 275
23.0894 301
23.1419 311
23.1944 278
23.247 257
23.2995 276
23.352 295
23.4045 276
23.457 253
23.5096 294
23.5621 241
23.6146 291
23.6671 258
23.7196 259
23.7722 301
23.8247 250
23.8772 259
23.9297 267
23.9823 261
24.0348 258
24.0873 289
24.1398 284
24.1923 279
24.2449 242
24.2974 242
24.3499 249
24.4024 233
24.4549 269
24.5075 239
24.56 255
24.6125 257
24.665 244
24.7175 260
24.7701 236
24.8226 246
24.8751 239
24.9276 242
24.9802 234
25.0327 266
25.0852 270
25.1377 251
25.1902 262
25.2428 214
25.2953 230
25.3478 253
25.4003 242
25.4528 220
25.5054 205
25.5579 217
25.6104 238
25.6629 258
25.7154 246
25.768 219
25.8205 227
25.873 243
25.9255 215
25.9781 205
26.0306 236
26.0831 219
26.1356 212
26.1881 225
26.2407 238
26.2932 195
26.3457 238
26.3982 209
26.4507 240
26.5033 220
26.5558 206
26.6083 193
26.6608 193
26.7133 191
26.7659 210
26.8184 195
26.8709 193
26.9234 207
26.976 216
27.0285 193
27.081 217
27.1335 236
27.186 192
27.2386 185
27.2911 202
27.3436 163
27.3961 228
27.4486 196
27.5012 201
27.5537 200
27.6062 203
27.6587 204
27.7113 188
27.7638 201
27.8163 191
27.8688 176
27.9213 196
27.9739 178
28.0264 201
28.0789 216
28.1314 205
28.1839 187
28.2365 197
28.289 199
28.3415 182
28.394 188
28.4465 208
28.4991 182
28.5516 195
28.6041 168
28.6566 201
28.7092 172
28.7617 202
28.8142 208
28.8667 224
28.9192 202
28.9718 182
29.0243 178
29.0768 188
29.1293 190
29.1818 191
29.2344 211
29.2869 208
29.3394 188
29.3919 208
29.4444 185
29.497 207
29.5495 201
29.602 196
29.6545 208
29.7071 205
29.7596 199
29.8121 193
29.8646 219
29.9171 216
29.9697 219
30.0222 211
30.0747 232
30.1272 270
30.1797 314
30.2323 279
30.2848 306
30.3373 349
30.3898 348
30.4424 379
30.4949 407
30.5474 400
30.5999 455
30.6524 483
30.705 490
30.7575 508
30.81 523
30.8625 503
30.915 509
30.9676 485
31.0201 492
31.0726 524
31.1251 515
31.1776 500
31.2302 559
31.2827 579
31.3352 541
31.3877 554
31.4403 544
31.4928 563
31.5453 545
31.5978 537
31.6503 546
31.7029 483
31.7554 486
31.8079 489
31.8604 482
31.9129 450
31.9655 433
32.018 447
32.0705 395
32.123 373
32.1755 292
32.2281 239
32.2806 202
32.3331 185
32.3856 149
32.4382 142
32.4907 168
32.5432 149
32.5957 155
32.6482 151
32.7008 156
32.7533 128
32.8058 140
32.8583 124
32.9108 133
32.9634 152
33.0159 170
33.0684 128
33.1209 142
33.1734 133
33.226 141
33.2785 147
33.331 136
33.3835 169
33.4361 161
33.4886 143
33.5411 148
33.5936 155
33.6461 143
33.6987 142
33.7512 147
33.8037 163
33.8562 179
33.9087 176
33.9613 149
34.0138 169
34.0663 166
34.1188 166
34.1714 182
34.2239 165
34.2764 190
34.3289 188
34.3814 205
34.434 192
34.4865 205
34.539 211
34.5915 208
34.644 204
34.6966 218
34.7491 186
34.8016 223
34.8541 200
34.9066 181
34.9592 191
35.0117 193
35.0642 182
35.1167 200
35.1693 200
35.2218 189
35.2743 209
35.3268 204
35.3793 207
35.4319 199
35.4844 195
35.5369 191
35.5894 177
35.6419 220
35.6945 196
35.747 198
35.7995 183
35.852 162
35.9045 158
35.9571 177
36.0096 160
36.0621 162
36.1146 131
36.1672 129
36.2197 132
36.2722 117
36.3247 120
36.3772 111
36.4298 118
36.4823 105
36.5348 130
36.5873 134
36.6398 136
36.6924 127
36.7449 126
36.7974 129
36.8499 127
36.9024 146
36.955 128
37.0075 139
37.06 153
37.1125 147
37.1651 148
37.2176 163
37.2701 187
37.3226 175
37.3751 215
37.4277 190
37.4802 185
37.5327 225
37.5852 205
37.6377 196
37.6903 216
37.7428 263
37.7953 238
37.8478 252
37.9004 230
37.9529 294
38.0054 249
38.0579 270
38.1104 290
38.163 308
38.2155 256
38.268 291
38.3205 300
38.373 303
38.4256 318
38.4781 308
38.5306 280
38.5831 270
38.6356 293
38.6882 288
38.7407 290
38.7932 305
38.8457 275
38.8983 310
38.9508 295
39.0033 264
39.0558 297
39.1083 264
39.1609 279
39.2134 261
39.2659 258
39.3184 248
39.3709 230
39.4235 223
39.476 221
39.5285 184
39.581 204
39.6335 159
39.6861 142
39.7386 151
39.7911 120
39.8436 112
39.8962 119
39.9487 127
40.0012 101
40.0537 128
40.1062 110
40.1588 114
40.2113 99
40.2638 108
40.3163 110
40.3688 108
40.4214 106
40.4739 105
40.5264 110
40.5789 101
40.6314 105
40.684 99
40.7365 121
40.789 90
40.8415 100
40.8941 113
40.9466 85
40.9991 118
41.0516 96
41.1041 107
41.1567 116
41.2092 109
41.2617 122
41.3142 114
41.3667 101
41.4193 100
41.4718 98
41.5243 102
41.5768 102
41.6294 107
41.6819 105
41.7344 97
41.7869 104
41.8394 106
41.892 122
41.9445 92
41.997 87
42.0495 90
42.102 92
42.1546 106
42.2071 93
42.2596 133
42.3121 102
42.3646 104
42.4172 96
42.4697 94
42.5222 101
42.5747 116
42.6273 96
42.6798 109
42.7323 96
42.7848 96
42.8373 108
42.8899 105
42.9424 104
42.9949 106
43.0474 105
43.0999 116
43.1525 116
43.205 119
43.2575 110
43.31 109
43.3625 110
43.4151 131
43.4676 135
43.5201 154
43.5726 152
43.6252 164
43.6777 168
43.7302 167
43.7827 178
43.8352 175
43.8878 170
43.9403 158
43.9928 189
44.0453 147
44.0978 181
44.1504 190
44.2029 170
44.2554 205
44.3079 176
44.3604 174
44.413 168
44.4655 162
44.518 223
44.5705 194
44.6231 179
44.6756 183
44.7281 218
44.7806 206
44.8331 200
44.8857 201
44.9382 193
44.9907 206
45.0432 220
45.0957 187
45.1483 159
45.2008 199
45.2533 184
45.3058 206
45.3584 185
45.4109 192
45.4634 197
45.5159 186
45.5684 210
45.621 188
45.6735 169
45.726 169
45.7785 162
45.831 156
45.8836 139
45.9361 145
45.9886 137
46.0411 118
46.0936 145
46.1462 143
46.1987 110
46.2512 115
46.3037 118
46.3563 132
46.4088 131
46.4613 120
46.5138 119
46.5663 109
46.6189 120
46.6714 119
46.7239 127
46.7764 118
46.8289 106
46.8815 101
46.934 132
46.9865 111
47.039 131
47.0915 122
47.1441 122
47.1966 116
47.2491 117
47.3016 133
47.3542 113
47.4067 110
47.4592 118
47.5117 131
47.5642 96
47.6168 115
47.6693 108
47.7218 112
47.7743 132
47.8268 116
47.8794 123
47.9319 120
47.9844 134
48.0369 120
48.0895 123
48.142 120
48.1945 115
48.247 127
48.2995 120
48.3521 127
48.4046 92
48.4571 102
48.5096 131
48.5621 125
48.6147 112
48.6672 116
48.7197 117
48.7722 130
48.8247 118
48.8773 112
48.9298 106
48.9823 124
49.0348 123
49.0874 113
49.1399 105
49.1924 115
49.2449 134
49.2974 118
49.35 119
49.4025 121
49.455 132
49.5075 139
49.56 124
49.6126 113
49.6651 149
49.7176 142
49.7701 118
49.8226 152
49.8752 147
49.9277 134
49.9802 126
50.0065 131