File: Br-Cl_phases/XRD/180s.dat
10.0116 370
10.0642 353
10.1167 378
10.1692 376
10.2217 408
10.2742 399
10.3268 375
10.3793 342
10.4318 367
10.4843 347
10.5368 372
10.5894 346
10.6419 356
10.6944 355
10.7469 317
10.7994 360
10.852 331
10.9045 356
10.957 365
11.0095 369
11.0621 369
11.1146 368
11.1671 363
11.2196 344
11.2721 340
11.3247 348
11.3772 305
11.4297 355
11.4822 340
11.5347 342
11.5873 305
11.6398 311
11.6923 348
11.7448 337
11.7973 356
11.8499 336
11.9024 328
11.9549 343
12.0074 375
12.06 346
12.1125 329
12.165 343
12.2175 360
12.27 352
12.3226 344
12.3751 322
12.4276 314
12.4801 357
12.5326 343
12.5852 332
12.6377 339
12.6902 285
12.7427 309
12.7953 336
12.8478 308
12.9003 311
12.9528 317
13.0053 317
13.0579 325
13.1104 293
13.1629 303
13.2154 326
13.2679 312
13.3205 321
13.373 340
13.4255 324
13.478 301
13.5305 278
13.5831 308
13.6356 302
13.6881 297
13.7406 322
13.7932 276
13.8457 286
13.8982 292
13.9507 259
14.0032 294
14.0558 287
14.1083 282
14.1608 283
14.2133 289
14.2658 265
14.3184 297
14.3709 265
14.4234 282
14.4759 296
14.5284 298
14.581 307
14.6335 310
14.686 326
14.7385 332
14.7911 323
14.8436 310
14.8961 404
14.9486 407
15.0011 458
15.0537 510
15.1062 523
15.1587 589
15.2112 589
15.2637 584
15.3163 610
15.3688 621
15.4213 601
15.4738 608
15.5263 638
15.5789 644
15.6314 645
15.6839 608
15.7364 595
15.789 544
15.8415 553
15.894 460
15.9465 418
15.999 384
16.0516 325
16.1041 309
16.1566 306
16.2091 270
16.2616 261
16.3142 268
16.3667 256
16.4192 254
16.4717 261
16.5243 265
16.5768 289
16.6293 261
16.6818 272
16.7343 238
16.7869 287
16.8394 237
16.8919 282
16.9444 252
16.9969 269
17.0495 241
17.102 258
17.1545 267
17.207 266
17.2595 288
17.3121 250
17.3646 265
17.4171 247
17.4696 266
17.5222 280
17.5747 289
17.6272 260
17.6797 237
17.7322 260
17.7848 277
17.8373 283
17.8898 245
17.9423 251
17.9948 285
18.0474 309
18.0999 245
18.1524 273
18.2049 299
18.2574 269
18.31 285
18.3625 291
18.415 247
18.4675 275
18.5201 273
18.5726 279
18.6251 264
18.6776 299
18.7301 294
18.7827 299
18.8352 288
18.8877 288
18.9402 283
18.9927 265
19.0453 297
19.0978 282
19.1503 296
19.2028 270
19.2553 279
19.3079 305
19.3604 256
19.4129 298
19.4654 294
19.518 336
19.5705 284
19.623 343
19.6755 276
19.728 313
19.7806 302
19.8331 295
19.8856 286
19.9381 287
19.9906 288
20.0432 309
20.0957 298
20.1482 288
20.2007 309
20.2533 317
20.3058 319
20.3583 333
20.4108 279
20.4633 357
20.5159 298
20.5684 319
20.6209 322
20.6734 345
20.7259 350
20.7785 323
20.831 331
20.8835 327
20.936 363
20.9885 414
21.0411 419
21.0936 527
21.1461 543
21.1986 616
21.2512 671
21.3037 731
21.3562 852
21.4087 822
21.4612 867
21.5138 884
21.5663 972
21.6188 892
21.6713 988
21.7238 936
21.7764 999
21.8289 937
21.8814 976
21.9339 1060
21.9864 975
22.039 1056
22.0915 1125
22.144 1060
22.1965 1041
22.2491 1052
22.3016 1030
22.3541 1024
22.4066 968
22.4591 919
22.5117 941
22.5642 829
22.6167 677
22.6692 578
22.7217 452
22.7743 353
22.8268 370
22.8793 332
22.9318 307
22.9843 312
23.0369 285
23.0894 284
23.1419 293
23.1944 284
23.247 268
23.2995 276
23.352 270
23.4045 275
23.457 272
23.5096 288
23.5621 286
23.6146 272
23.6671 238
23.7196 267
23.7722 291
23.8247 249
23.8772 257
23.9297 274
23.9823 277
24.0348 228
24.0873 253
24.1398 244
24.1923 286
24.2449 255
24.2974 232
24.3499 236
24.4024 227
24.4549 266
24.5075 230
24.56 255
24.6125 270
24.665 221
24.7175 273
24.7701 215
24.8226 246
24.8751 234
24.9276 236
24.9802 234
25.0327 273
25.0852 243
25.1377 256
25.1902 230
25.2428 219
25.2953 225
25.3478 223
25.4003 240
25.4528 220
25.5054 236
25.5579 214
25.6104 235
25.6629 242
25.7154 220
25.768 251
25.8205 224
25.873 225
25.9255 232
25.9781 229
26.0306 255
26.0831 212
26.1356 201
26.1881 233
26.2407 266
26.2932 204
26.3457 215
26.3982 201
26.4507 206
26.5033 213
26.5558 214
26.6083 200
26.6608 204
26.7133 199
26.7659 209
26.8184 205
26.8709 214
26.9234 220
26.976 178
27.0285 176
27.081 174
27.1335 184
27.186 192
27.2386 179
27.2911 176
27.3436 201
27.3961 189
27.4486 210
27.5012 192
27.5537 190
27.6062 204
27.6587 166
27.7113 178
27.7638 213
27.8163 196
27.8688 186
27.9213 185
27.9739 190
28.0264 196
28.0789 201
28.1314 191
28.1839 187
28.2365 184
28.289 200
28.3415 177
28.394 175
28.4465 182
28.4991 171
28.5516 191
28.6041 185
28.6566 189
28.7092 198
28.7617 198
28.8142 183
28.8667 174
28.9192 165
28.9718 191
29.0243 191
29.0768 178
29.1293 203
29.1818 192
29.2344 212
29.2869 168
29.3394 185
29.3919 182
29.4444 184
29.497 191
29.5495 207
29.602 184
29.6545 184
29.7071 204
29.7596 183
29.8121 189
29.8646 187
29.9171 207
29.9697 193
30.0222 223
30.0747 226
30.1272 244
30.1797 280
30.2323 303
30.2848 318
30.3373 344
30.3898 342
30.4424 386
30.4949 405
30.5474 436
30.5999 421
30.6524 441
30.705 415
30.7575 463
30.81 452
30.8625 479
30.915 526
30.9676 495
31.0201 516
31.0726 499
31.1251 475
31.1776 517
31.2302 564
31.2827 532
31.3352 571
31.3877 542
31.4403 501
31.4928 505
31.5453 527
31.5978 539
31.6503 512
31.7029 488
31.7554 529
31.8079 510
31.8604 463
31.9129 459
31.9655 460
32.018 454
32.0705 427
32.123 429
32.1755 353
32.2281 314
32.2806 283
32.3331 230
32.3856 187
32.4382 180
32.4907 163
32.5432 148
32.5957 147
32.6482 154
32.7008 154
32.7533 145
32.8058 151
32.8583 154
32.9108 152
32.9634 138
33.0159 136
33.0684 126
33.1209 139
33.1734 127
33.226 135
33.2785 145
33.331 121
33.3835 131
33.4361 156
33.4886 143
33.5411 152
33.5936 134
33.6461 148
33.6987 138
33.7512 131
33.8037 139
33.8562 161
33.9087 136
33.9613 153
34.0138 142
34.0663 158
34.1188 191
34.1714 196
34.2239 171
34.2764 170
34.3289 157
34.3814 170
34.434 200
34.4865 168
34.539 208
34.5915 204
34.644 196
34.6966 193
34.7491 206
34.8016 161
34.8541 197
34.9066 172
34.9592 189
35.0117 198
35.0642 176
35.1167 192
35.1693 203
35.2218 191
35.2743 218
35.3268 177
35.3793 188
35.4319 214
35.4844 195
35.5369 199
35.5894 197
35.6419 192
35.6945 159
35.747 175
35.7995 168
35.852 179
35.9045 174
35.9571 175
36.0096 186
36.0621 159
36.1146 161
36.1672 159
36.2197 133
36.2722 124
36.3247 128
36.3772 115
36.4298 110
36.4823 131
36.5348 107
36.5873 102
36.6398 133
36.6924 150
36.7449 144
36.7974 123
36.8499 118
36.9024 127
36.955 121
37.0075 155
37.06 139
37.1125 120
37.1651 173
37.2176 170
37.2701 189
37.3226 158
37.3751 208
37.4277 186
37.4802 216
37.5327 214
37.5852 214
37.6377 222
37.6903 235
37.7428 247
37.7953 275
37.8478 260
37.9004 279
37.9529 266
38.0054 285
38.0579 262
38.1104 236
38.163 251
38.2155 270
38.268 292
38.3205 260
38.373 291
38.4256 293
38.4781 272
38.5306 261
38.5831 265
38.6356 294
38.6882 273
38.7407 273
38.7932 288
38.8457 293
38.8983 276
38.9508 239
39.0033 310
39.0558 284
39.1083 279
39.1609 251
39.2134 270
39.2659 282
39.3184 265
39.3709 269
39.4235 247
39.476 264
39.5285 245
39.581 223
39.6335 194
39.6861 180
39.7386 165
39.7911 144
39.8436 140
39.8962 123
39.9487 118
40.0012 102
40.0537 112
40.1062 126
40.1588 112
40.2113 106
40.2638 113
40.3163 117
40.3688 108
40.4214 111
40.4739 108
40.5264 110
40.5789 106
40.6314 102
40.684 113
40.7365 123
40.789 96
40.8415 105
40.8941 94
40.9466 113
40.9991 117
41.0516 112
41.1041 110
41.1567 105
41.2092 96
41.2617 99
41.3142 99
41.3667 89
41.4193 106
41.4718 100
41.5243 107
41.5768 117
41.6294 97
41.6819 90
41.7344 103
41.7869 91
41.8394 114
41.892 124
41.9445 97
41.997 94
42.0495 87
42.102 100
42.1546 106
42.2071 89
42.2596 112
42.3121 92
42.3646 94
42.4172 88
42.4697 97
42.5222 90
42.5747 96
42.6273 102
42.6798 101
42.7323 103
42.7848 93
42.8373 120
42.8899 96
42.9424 124
42.9949 104
43.0474 117
43.0999 124
43.1525 103
43.205 126
43.2575 122
43.31 113
43.3625 129
43.4151 149
43.4676 146
43.5201 125
43.5726 142
43.6252 145
43.6777 143
43.7302 134
43.7827 144
43.8352 173
43.8878 167
43.9403 156
43.9928 157
44.0453 166
44.0978 155
44.1504 169
44.2029 169
44.2554 196
44.3079 176
44.3604 168
44.413 185
44.4655 198
44.518 183
44.5705 194
44.6231 185
44.6756 217
44.7281 200
44.7806 197
44.8331 209
44.8857 184
44.9382 202
44.9907 178
45.0432 208
45.0957 192
45.1483 199
45.2008 203
45.2533 176
45.3058 173
45.3584 191
45.4109 184
45.4634 196
45.5159 191
45.5684 202
45.621 171
45.6735 210
45.726 173
45.7785 160
45.831 167
45.8836 148
45.9361 147
45.9886 185
46.0411 150
46.0936 150
46.1462 147
46.1987 168
46.2512 142
46.3037 128
46.3563 119
46.4088 124
46.4613 122
46.5138 121
46.5663 129
46.6189 106
46.6714 129
46.7239 113
46.7764 111
46.8289 111
46.8815 120
46.934 120
46.9865 126
47.039 121
47.0915 112
47.1441 120
47.1966 115
47.2491 116
47.3016 116
47.3542 122
47.4067 123
47.4592 131
47.5117 109
47.5642 128
47.6168 125
47.6693 95
47.7218 137
47.7743 116
47.8268 111
47.8794 119
47.9319 129
47.9844 122
48.0369 87
48.0895 113
48.142 114
48.1945 119
48.247 122
48.2995 97
48.3521 112
48.4046 129
48.4571 95
48.5096 127
48.5621 100
48.6147 123
48.6672 118
48.7197 105
48.7722 120
48.8247 123
48.8773 100
48.9298 100
48.9823 124
49.0348 126
49.0874 120
49.1399 140
49.1924 128
49.2449 109
49.2974 110
49.35 112
49.4025 127
49.455 134
49.5075 139
49.56 131
49.6126 129
49.6651 148
49.7176 134
49.7701 119
49.8226 145
49.8752 139
49.9277 133
49.9802 132
50.0065 159