File: Br-Cl_phases/XRD/300s.dat
10.0116 367
10.0642 335
10.1167 357
10.1692 382
10.2217 394
10.2742 365
10.3268 359
10.3793 347
10.4318 389
10.4843 397
10.5368 359
10.5894 345
10.6419 394
10.6944 368
10.7469 342
10.7994 387
10.852 363
10.9045 367
10.957 317
11.0095 372
11.0621 348
11.1146 317
11.1671 354
11.2196 365
11.2721 349
11.3247 340
11.3772 354
11.4297 335
11.4822 362
11.5347 337
11.5873 347
11.6398 320
11.6923 369
11.7448 323
11.7973 327
11.8499 324
11.9024 339
11.9549 321
12.0074 337
12.06 329
12.1125 352
12.165 357
12.2175 354
12.27 347
12.3226 314
12.3751 370
12.4276 339
12.4801 339
12.5326 325
12.5852 327
12.6377 332
12.6902 346
12.7427 346
12.7953 347
12.8478 327
12.9003 328
12.9528 327
13.0053 359
13.0579 333
13.1104 333
13.1629 318
13.2154 315
13.2679 306
13.3205 304
13.373 299
13.4255 314
13.478 335
13.5305 282
13.5831 306
13.6356 295
13.6881 296
13.7406 304
13.7932 316
13.8457 284
13.8982 314
13.9507 305
14.0032 306
14.0558 259
14.1083 263
14.1608 273
14.2133 308
14.2658 294
14.3184 301
14.3709 282
14.4234 296
14.4759 305
14.5284 318
14.581 307
14.6335 297
14.686 339
14.7385 359
14.7911 311
14.8436 344
14.8961 399
14.9486 429
15.0011 467
15.0537 521
15.1062 533
15.1587 586
15.2112 613
15.2637 661
15.3163 706
15.3688 712
15.4213 679
15.4738 739
15.5263 716
15.5789 732
15.6314 755
15.6839 697
15.7364 694
15.789 654
15.8415 697
15.894 597
15.9465 549
15.999 525
16.0516 406
16.1041 359
16.1566 301
16.2091 317
16.2616 235
16.3142 299
16.3667 301
16.4192 309
16.4717 279
16.5243 266
16.5768 265
16.6293 238
16.6818 278
16.7343 289
16.7869 267
16.8394 245
16.8919 266
16.9444 270
16.9969 277
17.0495 261
17.102 291
17.1545 283
17.207 250
17.2595 275
17.3121 281
17.3646 218
17.4171 249
17.4696 271
17.5222 262
17.5747 262
17.6272 268
17.6797 274
17.7322 262
17.7848 259
17.8373 249
17.8898 232
17.9423 286
17.9948 291
18.0474 299
18.0999 261
18.1524 282
18.2049 289
18.2574 278
18.31 256
18.3625 263
18.415 250
18.4675 280
18.5201 298
18.5726 311
18.6251 302
18.6776 278
18.7301 297
18.7827 308
18.8352 251
18.8877 294
18.9402 273
18.9927 282
19.0453 297
19.0978 279
19.1503 280
19.2028 271
19.2553 312
19.3079 307
19.3604 320
19.4129 328
19.4654 272
19.518 284
19.5705 290
19.623 287
19.6755 288
19.728 310
19.7806 290
19.8331 319
19.8856 287
19.9381 299
19.9906 298
20.0432 325
20.0957 319
20.1482 338
20.2007 301
20.2533 310
20.3058 312
20.3583 301
20.4108 306
20.4633 312
20.5159 302
20.5684 301
20.6209 300
20.6734 315
20.7259 322
20.7785 317
20.831 337
20.8835 314
20.936 335
20.9885 359
21.0411 349
21.0936 335
21.1461 331
21.1986 400
21.2512 446
21.3037 423
21.3562 449
21.4087 418
21.4612 486
21.5138 547
21.5663 504
21.6188 557
21.6713 603
21.7238 563
21.7764 613
21.8289 624
21.8814 597
21.9339 597
21.9864 631
22.039 654
22.0915 648
22.144 667
22.1965 649
22.2491 625
22.3016 592
22.3541 610
22.4066 633
22.4591 550
22.5117 584
22.5642 552
22.6167 497
22.6692 469
22.7217 447
22.7743 372
22.8268 314
22.8793 297
22.9318 291
22.9843 284
23.0369 293
23.0894 247
23.1419 255
23.1944 291
23.247 283
23.2995 274
23.352 240
23.4045 275
23.457 241
23.5096 261
23.5621 275
23.6146 261
23.6671 266
23.7196 271
23.7722 250
23.8247 264
23.8772 231
23.9297 220
23.9823 265
24.0348 223
24.0873 257
24.1398 259
24.1923 251
24.2449 245
24.2974 229
24.3499 231
24.4024 256
24.4549 249
24.5075 230
24.56 238
24.6125 256
24.665 250
24.7175 255
24.7701 229
24.8226 244
24.8751 243
24.9276 244
24.9802 255
25.0327 227
25.0852 263
25.1377 264
25.1902 238
25.2428 266
25.2953 254
25.3478 247
25.4003 219
25.4528 223
25.5054 266
25.5579 226
25.6104 215
25.6629 238
25.7154 210
25.768 185
25.8205 228
25.873 223
25.9255 203
25.9781 206
26.0306 199
26.0831 195
26.1356 194
26.1881 201
26.2407 210
26.2932 221
26.3457 199
26.3982 186
26.4507 207
26.5033 232
26.5558 191
26.6083 200
26.6608 201
26.7133 221
26.7659 204
26.8184 193
26.8709 181
26.9234 162
26.976 178
27.0285 205
27.081 196
27.1335 172
27.186 209
27.2386 200
27.2911 188
27.3436 188
27.3961 191
27.4486 172
27.5012 167
27.5537 190
27.6062 185
27.6587 159
27.7113 208
27.7638 197
27.8163 198
27.8688 199
27.9213 182
27.9739 185
28.0264 192
28.0789 211
28.1314 165
28.1839 186
28.2365 207
28.289 199
28.3415 192
28.394 212
28.4465 160
28.4991 188
28.5516 182
28.6041 192
28.6566 189
28.7092 185
28.7617 168
28.8142 179
28.8667 181
28.9192 195
28.9718 194
29.0243 182
29.0768 195
29.1293 194
29.1818 175
29.2344 205
29.2869 161
29.3394 200
29.3919 192
29.4444 191
29.497 180
29.5495 202
29.602 188
29.6545 185
29.7071 208
29.7596 192
29.8121 195
29.8646 212
29.9171 189
29.9697 222
30.0222 231
30.0747 271
30.1272 230
30.1797 308
30.2323 352
30.2848 353
30.3373 359
30.3898 390
30.4424 404
30.4949 446
30.5474 477
30.5999 522
30.6524 523
30.705 571
30.7575 655
30.81 637
30.8625 709
30.915 728
30.9676 686
31.0201 736
31.0726 752
31.1251 760
31.1776 740
31.2302 782
31.2827 837
31.3352 728
31.3877 779
31.4403 763
31.4928 758
31.5453 765
31.5978 809
31.6503 778
31.7029 828
31.7554 791
31.8079 704
31.8604 773
31.9129 736
31.9655 727
32.018 734
32.0705 655
32.123 665
32.1755 629
32.2281 585
32.2806 503
32.3331 436
32.3856 354
32.4382 261
32.4907 262
32.5432 231
32.5957 197
32.6482 159
32.7008 169
32.7533 143
32.8058 136
32.8583 163
32.9108 139
32.9634 163
33.0159 160
33.0684 147
33.1209 176
33.1734 169
33.226 158
33.2785 168
33.331 132
33.3835 156
33.4361 136
33.4886 146
33.5411 122
33.5936 141
33.6461 145
33.6987 166
33.7512 158
33.8037 169
33.8562 129
33.9087 154
33.9613 158
34.0138 146
34.0663 179
34.1188 175
34.1714 157
34.2239 155
34.2764 173
34.3289 162
34.3814 191
34.434 201
34.4865 184
34.539 192
34.5915 183
34.644 175
34.6966 219
34.7491 195
34.8016 192
34.8541 206
34.9066 183
34.9592 202
35.0117 220
35.0642 179
35.1167 192
35.1693 193
35.2218 195
35.2743 195
35.3268 213
35.3793 212
35.4319 189
35.4844 218
35.5369 212
35.5894 190
35.6419 203
35.6945 189
35.747 180
35.7995 182
35.852 167
35.9045 204
35.9571 174
36.0096 175
36.0621 204
36.1146 168
36.1672 159
36.2197 152
36.2722 133
36.3247 122
36.3772 122
36.4298 139
36.4823 148
36.5348 131
36.5873 114
36.6398 141
36.6924 113
36.7449 134
36.7974 108
36.8499 129
36.9024 128
36.955 121
37.0075 113
37.06 138
37.1125 133
37.1651 112
37.2176 140
37.2701 140
37.3226 145
37.3751 181
37.4277 166
37.4802 164
37.5327 170
37.5852 178
37.6377 188
37.6903 190
37.7428 188
37.7953 205
37.8478 209
37.9004 205
37.9529 230
38.0054 240
38.0579 221
38.1104 234
38.163 236
38.2155 279
38.268 283
38.3205 270
38.373 239
38.4256 263
38.4781 248
38.5306 264
38.5831 278
38.6356 281
38.6882 246
38.7407 263
38.7932 287
38.8457 246
38.8983 239
38.9508 257
39.0033 250
39.0558 300
39.1083 242
39.1609 268
39.2134 233
39.2659 262
39.3184 279
39.3709 264
39.4235 246
39.476 230
39.5285 222
39.581 194
39.6335 200
39.6861 177
39.7386 191
39.7911 192
39.8436 165
39.8962 144
39.9487 136
40.0012 134
40.0537 109
40.1062 119
40.1588 117
40.2113 108
40.2638 101
40.3163 114
40.3688 89
40.4214 123
40.4739 115
40.5264 97
40.5789 120
40.6314 100
40.684 101
40.7365 104
40.789 88
40.8415 92
40.8941 112
40.9466 83
40.9991 92
41.0516 89
41.1041 117
41.1567 93
41.2092 112
41.2617 116
41.3142 100
41.3667 89
41.4193 98
41.4718 84
41.5243 110
41.5768 121
41.6294 83
41.6819 102
41.7344 112
41.7869 93
41.8394 100
41.892 109
41.9445 93
41.997 77
42.0495 85
42.102 125
42.1546 76
42.2071 97
42.2596 92
42.3121 113
42.3646 92
42.4172 104
42.4697 99
42.5222 91
42.5747 105
42.6273 91
42.6798 84
42.7323 102
42.7848 87
42.8373 116
42.8899 87
42.9424 95
42.9949 101
43.0474 108
43.0999 99
43.1525 89
43.205 105
43.2575 92
43.31 108
43.3625 105
43.4151 118
43.4676 126
43.5201 119
43.5726 125
43.6252 108
43.6777 124
43.7302 148
43.7827 123
43.8352 120
43.8878 129
43.9403 141
43.9928 139
44.0453 139
44.0978 155
44.1504 179
44.2029 152
44.2554 185
44.3079 154
44.3604 156
44.413 164
44.4655 156
44.518 125
44.5705 150
44.6231 155
44.6756 175
44.7281 176
44.7806 161
44.8331 183
44.8857 159
44.9382 192
44.9907 179
45.0432 182
45.0957 183
45.1483 165
45.2008 197
45.2533 184
45.3058 186
45.3584 161
45.4109 173
45.4634 173
45.5159 168
45.5684 179
45.621 186
45.6735 169
45.726 148
45.7785 188
45.831 158
45.8836 144
45.9361 149
45.9886 157
46.0411 152
46.0936 158
46.1462 158
46.1987 145
46.2512 135
46.3037 145
46.3563 127
46.4088 123
46.4613 106
46.5138 96
46.5663 124
46.6189 106
46.6714 110
46.7239 85
46.7764 108
46.8289 121
46.8815 121
46.934 93
46.9865 104
47.039 117
47.0915 126
47.1441 117
47.1966 120
47.2491 137
47.3016 138
47.3542 99
47.4067 112
47.4592 119
47.5117 116
47.5642 131
47.6168 121
47.6693 101
47.7218 121
47.7743 118
47.8268 119
47.8794 128
47.9319 106
47.9844 129
48.0369 112
48.0895 137
48.142 96
48.1945 99
48.247 124
48.2995 106
48.3521 118
48.4046 123
48.4571 110
48.5096 113
48.5621 100
48.6147 99
48.6672 126
48.7197 131
48.7722 99
48.8247 119
48.8773 112
48.9298 104
48.9823 101
49.0348 127
49.0874 124
49.1399 114
49.1924 116
49.2449 126
49.2974 119
49.35 110
49.4025 134
49.455 114
49.5075 126
49.56 123
49.6126 137
49.6651 133
49.7176 119
49.7701 122
49.8226 114
49.8752 144
49.9277 148
49.9802 144
50.0065 115