File: Br-Cl_phases/XRD/Si_ref.dat
10.0116 1263
10.0642 1272
10.1167 1205
10.1692 1250
10.2217 1265
10.2742 1297
10.3268 1269
10.3793 1246
10.4318 1251
10.4843 1262
10.5368 1197
10.5894 1275
10.6419 1220
10.6944 1265
10.7469 1230
10.7994 1278
10.852 1257
10.9045 1165
10.957 1193
11.0095 1272
11.0621 1221
11.1146 1255
11.1671 1252
11.2196 1250
11.2721 1259
11.3247 1270
11.3772 1254
11.4297 1276
11.4822 1360
11.5347 1219
11.5873 1229
11.6398 1285
11.6923 1235
11.7448 1309
11.7973 1321
11.8499 1289
11.9024 1320
11.9549 1302
12.0074 1340
12.06 1317
12.1125 1298
12.165 1295
12.2175 1293
12.27 1264
12.3226 1268
12.3751 1328
12.4276 1302
12.4801 1387
12.5326 1315
12.5852 1295
12.6377 1349
12.6902 1276
12.7427 1256
12.7953 1295
12.8478 1240
12.9003 1270
12.9528 1363
13.0053 1295
13.0579 1284
13.1104 1239
13.1629 1338
13.2154 1311
13.2679 1307
13.3205 1354
13.373 1335
13.4255 1326
13.478 1317
13.5305 1297
13.5831 1315
13.6356 1308
13.6881 1411
13.7406 1348
13.7932 1348
13.8457 1425
13.8982 1380
13.9507 1413
14.0032 1385
14.0558 1334
14.1083 1398
14.1608 1324
14.2133 1339
14.2658 1415
14.3184 1475
14.3709 1474
14.4234 1408
14.4759 1432
14.5284 1350
14.581 1408
14.6335 1372
14.686 1375
14.7385 1368
14.7911 1405
14.8436 1360
14.8961 1395
14.9486 1407
15.0011 1339
15.0537 1463
15.1062 1515
15.1587 1480
15.2112 1466
15.2637 1487
15.3163 1551
15.3688 1445
15.4213 1492
15.4738 1422
15.5263 1498
15.5789 1483
15.6314 1459
15.6839 1496
15.7364 1446
15.789 1461
15.8415 1537
15.894 1538
15.9465 1488
15.999 1532
16.0516 1553
16.1041 1456
16.1566 1564
16.2091 1619
16.2616 1645
16.3142 1514
16.3667 1629
16.4192 1562
16.4717 1636
16.5243 1696
16.5768 1700
16.6293 1657
16.6818 1621
16.7343 1661
16.7869 1629
16.8394 1691
16.8919 1697
16.9444 1712
16.9969 1720
17.0495 1643
17.102 1785
17.1545 1644
17.207 1734
17.2595 1694
17.3121 1711
17.3646 1764
17.4171 1778
17.4696 1708
17.5222 1771
17.5747 1756
17.6272 1813
17.6797 1792
17.7322 1701
17.7848 1819
17.8373 1861
17.8898 1812
17.9423 1786
17.9948 1858
18.0474 1734
18.0999 1805
18.1524 1850
18.2049 1807
18.2574 1825
18.31 1831
18.3625 1811
18.415 1887
18.4675 1822
18.5201 1920
18.5726 1859
18.6251 1919
18.6776 1850
18.7301 1883
18.7827 1941
18.8352 1887
18.8877 1929
18.9402 1846
18.9927 1928
19.0453 1953
19.0978 1874
19.1503 1870
19.2028 1914
19.2553 1928
19.3079 1890
19.3604 1891
19.4129 1872
19.4654 1869
19.518 1945
19.5705 1891
19.623 1925
19.6755 1910
19.728 1890
19.7806 1958
19.8331 1960
19.8856 1880
19.9381 1930
19.9906 1882
20.0432 1875
20.0957 1953
20.1482 1901
20.2007 1803
20.2533 1829
20.3058 1758
20.3583 1850
20.4108 1862
20.4633 1843
20.5159 1833
20.5684 1907
20.6209 1903
20.6734 1851
20.7259 1858
20.7785 1820
20.831 1877
20.8835 1791
20.936 1816
20.9885 1808
21.0411 1805
21.0936 1814
21.1461 1800
21.1986 1852
21.2512 1781
21.3037 1738
21.3562 1792
21.4087 1810
21.4612 1740
21.5138 1730
21.5663 1750
21.6188 1757
21.6713 1701
21.7238 1682
21.7764 1725
21.8289 1695
21.8814 1707
21.9339 1521
21.9864 1610
22.039 1578
22.0915 1612
22.144 1616
22.1965 1598
22.2491 1547
22.3016 1538
22.3541 1522
22.4066 1595
22.4591 1612
22.5117 1519
22.5642 1553
22.6167 1474
22.6692 1599
22.7217 1554
22.7743 1526
22.8268 1547
22.8793 1508
22.9318 1505
22.9843 1497
23.0369 1507
23.0894 1525
23.1419 1503
23.1944 1474
23.247 1462
23.2995 1409
23.352 1416
23.4045 1407
23.457 1429
23.5096 1407
23.5621 1399
23.6146 1361
23.6671 1353
23.7196 1372
23.7722 1356
23.8247 1359
23.8772 1347
23.9297 1308
23.9823 1285
24.0348 1358
24.0873 1300
24.1398 1311
24.1923 1270
24.2449 1247
24.2974 1285
24.3499 1279
24.4024 1256
24.4549 1287
24.5075 1246
24.56 1307
24.6125 1254
24.665 1289
24.7175 1205
24.7701 1217
24.8226 1209
24.8751 1229
24.9276 1202
24.9802 1210
25.0327 1187
25.0852 1156
25.1377 1187
25.1902 1187
25.2428 1142
25.2953 1154
25.3478 1083
25.4003 1189
25.4528 1176
25.5054 1180
25.5579 1140
25.6104 1100
25.6629 1133
25.7154 1099
25.768 1067
25.8205 1089
25.873 1066
25.9255 1138
25.9781 1094
26.0306 1135
26.0831 1121
26.1356 1081
26.1881 1032
26.2407 1049
26.2932 1132
26.3457 1042
26.3982 1063
26.4507 1038
26.5033 1088
26.5558 1049
26.6083 1064
26.6608 1038
26.7133 1076
26.7659 1059
26.8184 1112
26.8709 1116
26.9234 1196
26.976 1223
27.0285 1315
27.081 1396
27.1335 1467
27.186 2011
27.2386 1634
27.2911 1710
27.3436 1613
27.3961 1642
27.4486 1550
27.5012 1663
27.5537 1595
27.6062 1845
27.6587 1655
27.7113 1775
27.7638 1895
27.8163 1812
27.8688 1732
27.9213 1762
27.9739 1828
28.0264 1835
28.0789 2461
28.1314 2054
28.1839 2102
28.2365 2255
28.289 2000
28.3415 2257
28.394 1955
28.4465 2221
28.4991 2232
28.5516 3269
28.6041 2257
28.6566 2142
28.7092 2565
28.7617 3552
28.8142 2720
28.8667 2613
28.9192 2524
28.9718 2694
29.0243 3146
29.0768 3746
29.1293 3311
29.1818 1974
29.2344 1665
29.2869 1199
29.3394 1023
29.3919 993
29.4444 933
29.497 961
29.5495 900
29.602 856
29.6545 900
29.7071 884
29.7596 909
29.8121 894
29.8646 847
29.9171 859
29.9697 896
30.0222 865
30.0747 871
30.1272 826
30.1797 836
30.2323 895
30.2848 815
30.3373 830
30.3898 881
30.4424 811
30.4949 884
30.5474 869
30.5999 834
30.6524 797
30.705 820
30.7575 811
30.81 822
30.8625 791
30.915 806
30.9676 850
31.0201 821
31.0726 788
31.1251 825
31.1776 800
31.2302 771
31.2827 796
31.3352 814
31.3877 782
31.4403 814
31.4928 770
31.5453 820
31.5978 761
31.6503 841
31.7029 788
31.7554 854
31.8079 823
31.8604 804
31.9129 809
31.9655 799
32.018 806
32.0705 731
32.123 774
32.1755 806
32.2281 778
32.2806 775
32.3331 781
32.3856 780
32.4382 710
32.4907 803
32.5432 758
32.5957 741
32.6482 752
32.7008 780
32.7533 801
32.8058 782
32.8583 789
32.9108 796
32.9634 758
33.0159 797
33.0684 700
33.1209 775
33.1734 784
33.226 764
33.2785 710
33.331 742
33.3835 716
33.4361 717
33.4886 727
33.5411 721
33.5936 680
33.6461 713
33.6987 704
33.7512 685
33.8037 725
33.8562 669
33.9087 696
33.9613 704
34.0138 694
34.0663 665
34.1188 708
34.1714 662
34.2239 668
34.2764 668
34.3289 717
34.3814 670
34.434 667
34.4865 670
34.539 674
34.5915 659
34.644 700
34.6966 648
34.7491 671
34.8016 689
34.8541 655
34.9066 684
34.9592 694
35.0117 700
35.0642 678
35.1167 675
35.1693 688
35.2218 694
35.2743 666
35.3268 614
35.3793 673
35.4319 633
35.4844 660
35.5369 640
35.5894 651
35.6419 669
35.6945 654
35.747 644
35.7995 604
35.852 649
35.9045 615
35.9571 641
36.0096 626
36.0621 715
36.1146 620
36.1672 653
36.2197 628
36.2722 618
36.3247 663
36.3772 604
36.4298 617
36.4823 628
36.5348 590
36.5873 613
36.6398 639
36.6924 628
36.7449 616
36.7974 643
36.8499 669
36.9024 618
36.955 595
37.0075 571
37.06 583
37.1125 640
37.1651 592
37.2176 600
37.2701 657
37.3226 605
37.3751 611
37.4277 654
37.4802 615
37.5327 626
37.5852 566
37.6377 606
37.6903 618
37.7428 618
37.7953 589
37.8478 633
37.9004 596
37.9529 653
38.0054 617
38.0579 594
38.1104 611
38.163 591
38.2155 637
38.268 618
38.3205 581
38.373 591
38.4256 594
38.4781 584
38.5306 605
38.5831 564
38.6356 613
38.6882 571
38.7407 612
38.7932 576
38.8457 618
38.8983 603
38.9508 638
39.0033 553
39.0558 613
39.1083 581
39.1609 621
39.2134 603
39.2659 650
39.3184 612
39.3709 631
39.4235 599
39.476 610
39.5285 617
39.581 572
39.6335 574
39.6861 590
39.7386 645
39.7911 612
39.8436 638
39.8962 564
39.9487 582
40.0012 604
40.0537 588
40.1062 591
40.1588 572
40.2113 606
40.2638 563
40.3163 603
40.3688 569
40.4214 582
40.4739 590
40.5264 557
40.5789 621
40.6314 551
40.684 531
40.7365 591
40.789 584
40.8415 577
40.8941 586
40.9466 586
40.9991 562
41.0516 543
41.1041 543
41.1567 558
41.2092 610
41.2617 597
41.3142 559
41.3667 610
41.4193 501
41.4718 605
41.5243 515
41.5768 572
41.6294 575
41.6819 553
41.7344 596
41.7869 610
41.8394 587
41.892 548
41.9445 588
41.997 550
42.0495 579
42.102 546
42.1546 577
42.2071 579
42.2596 573
42.3121 592
42.3646 568
42.4172 574
42.4697 569
42.5222 539
42.5747 495
42.6273 562
42.6798 581
42.7323 546
42.7848 526
42.8373 561
42.8899 554
42.9424 601
42.9949 584
43.0474 590
43.0999 581
43.1525 597
43.205 598
43.2575 564
43.31 611
43.3625 618
43.4151 591
43.4676 627
43.5201 594
43.5726 609
43.6252 603
43.6777 592
43.7302 607
43.7827 608
43.8352 581
43.8878 588
43.9403 593
43.9928 610
44.0453 580
44.0978 592
44.1504 619
44.2029 590
44.2554 574
44.3079 548
44.3604 586
44.413 576
44.4655 568
44.518 603
44.5705 575
44.6231 584
44.6756 590
44.7281 601
44.7806 648
44.8331 601
44.8857 642
44.9382 630
44.9907 671
45.0432 643
45.0957 609
45.1483 610
45.2008 658
45.2533 717
45.3058 662
45.3584 686
45.4109 634
45.4634 697
45.5159 768
45.5684 1013
45.621 735
45.6735 708
45.726 709
45.7785 778
45.831 751
45.8836 739
45.9361 767
45.9886 766
46.0411 794
46.0936 760
46.1462 755
46.1987 996
46.2512 863
46.3037 936
46.3563 865
46.4088 884
46.4613 887
46.5138 992
46.5663 834
46.6189 952
46.6714 941
46.7239 961
46.7764 907
46.8289 872
46.8815 1000
46.934 1032
46.9865 836
47.039 866
47.0915 914
47.1441 899
47.1966 1416
47.2491 1365
47.3016 1237
47.3542 1489
47.4067 1252
47.4592 983
47.5117 1177
47.5642 1052
47.6168 1053
47.6693 1150
47.7218 1140
47.7743 1083
47.8268 1183
47.8794 1196
47.9319 1787
47.9844 1217
48.0369 1336
48.0895 1546
48.142 1225
48.1945 1398
48.247 1168
48.2995 1299
48.3521 2196
48.4046 1130
48.4571 1187
48.5096 974
48.5621 917
48.6147 726
48.6672 659
48.7197 541
48.7722 544
48.8247 437
48.8773 454
48.9298 478
48.9823 483
49.0348 448
49.0874 448
49.1399 493
49.1924 455
49.2449 490
49.2974 505
49.35 442
49.4025 450
49.455 442
49.5075 495
49.56 439
49.6126 455
49.6651 436
49.7176 423
49.7701 451
49.8226 441
49.8752 487
49.9277 408
49.9802 446
50.0065 427