File: Br-Cl_phases/XRD/original/220615_0s_GIXRD.xy
10.0116 367.0
10.0642 356.0
10.1167 356.0
10.1692 416.0
10.2217 368.0
10.2742 359.0
10.3268 370.0
10.3793 361.0
10.4318 363.0
10.4843 361.0
10.5368 370.0
10.5894 328.0
10.6419 375.0
10.6944 333.0
10.7469 363.0
10.7994 361.0
10.852 421.0
10.9045 345.0
10.957 360.0
11.0095 344.0
11.0621 335.0
11.1146 354.0
11.1671 367.0
11.2196 343.0
11.2721 333.0
11.3247 344.0
11.3772 338.0
11.4297 360.0
11.4822 313.0
11.5347 320.0
11.5873 347.0
11.6398 346.0
11.6923 309.0
11.7448 356.0
11.7973 342.0
11.8499 328.0
11.9024 355.0
11.9549 325.0
12.0074 308.0
12.06 315.0
12.1125 294.0
12.165 376.0
12.2175 328.0
12.27 326.0
12.3226 337.0
12.3751 338.0
12.4276 325.0
12.4801 329.0
12.5326 340.0
12.5852 339.0
12.6377 365.0
12.6902 344.0
12.7427 312.0
12.7953 314.0
12.8478 339.0
12.9003 322.0
12.9528 342.0
13.0053 318.0
13.0579 351.0
13.1104 334.0
13.1629 317.0
13.2154 303.0
13.2679 293.0
13.3205 301.0
13.373 311.0
13.4255 282.0
13.478 344.0
13.5305 279.0
13.5831 300.0
13.6356 308.0
13.6881 301.0
13.7406 296.0
13.7932 286.0
13.8457 291.0
13.8982 263.0
13.9507 282.0
14.0032 269.0
14.0558 291.0
14.1083 266.0
14.1608 283.0
14.2133 308.0
14.2658 296.0
14.3184 274.0
14.3709 276.0
14.4234 299.0
14.4759 320.0
14.5284 322.0
14.581 421.0
14.6335 423.0
14.686 427.0
14.7385 460.0
14.7911 477.0
14.8436 529.0
14.8961 584.0
14.9486 586.0
15.0011 668.0
15.0537 644.0
15.1062 578.0
15.1587 575.0
15.2112 619.0
15.2637 588.0
15.3163 573.0
15.3688 628.0
15.4213 575.0
15.4738 563.0
15.5263 530.0
15.5789 453.0
15.6314 422.0
15.6839 367.0
15.7364 307.0
15.789 296.0
15.8415 278.0
15.894 265.0
15.9465 310.0
15.999 283.0
16.0516 287.0
16.1041 255.0
16.1566 239.0
16.2091 270.0
16.2616 274.0
16.3142 263.0
16.3667 253.0
16.4192 285.0
16.4717 275.0
16.5243 279.0
16.5768 272.0
16.6293 285.0
16.6818 263.0
16.7343 259.0
16.7869 252.0
16.8394 272.0
16.8919 267.0
16.9444 276.0
16.9969 272.0
17.0495 238.0
17.102 231.0
17.1545 245.0
17.207 253.0
17.2595 292.0
17.3121 247.0
17.3646 281.0
17.4171 300.0
17.4696 274.0
17.5222 281.0
17.5747 264.0
17.6272 304.0
17.6797 281.0
17.7322 260.0
17.7848 250.0
17.8373 277.0
17.8898 271.0
17.9423 254.0
17.9948 298.0
18.0474 264.0
18.0999 283.0
18.1524 248.0
18.2049 249.0
18.2574 295.0
18.31 284.0
18.3625 282.0
18.415 292.0
18.4675 236.0
18.5201 249.0
18.5726 282.0
18.6251 269.0
18.6776 308.0
18.7301 286.0
18.7827 266.0
18.8352 267.0
18.8877 305.0
18.9402 238.0
18.9927 279.0
19.0453 266.0
19.0978 298.0
19.1503 291.0
19.2028 298.0
19.2553 275.0
19.3079 309.0
19.3604 301.0
19.4129 289.0
19.4654 312.0
19.518 296.0
19.5705 306.0
19.623 281.0
19.6755 314.0
19.728 293.0
19.7806 306.0
19.8331 302.0
19.8856 272.0
19.9381 302.0
19.9906 313.0
20.0432 289.0
20.0957 323.0
20.1482 321.0
20.2007 337.0
20.2533 292.0
20.3058 320.0
20.3583 335.0
20.4108 308.0
20.4633 299.0
20.5159 362.0
20.5684 332.0
20.6209 363.0
20.6734 400.0
20.7259 410.0
20.7785 397.0
20.831 514.0
20.8835 539.0
20.936 578.0
20.9885 566.0
21.0411 649.0
21.0936 609.0
21.1461 655.0
21.1986 750.0
21.2512 686.0
21.3037 755.0
21.3562 731.0
21.4087 724.0
21.4612 781.0
21.5138 766.0
21.5663 753.0
21.6188 818.0
21.6713 799.0
21.7238 738.0
21.7764 765.0
21.8289 753.0
21.8814 756.0
21.9339 748.0
21.9864 678.0
22.039 656.0
22.0915 587.0
22.144 612.0
22.1965 552.0
22.2491 484.0
22.3016 384.0
22.3541 377.0
22.4066 315.0
22.4591 355.0
22.5117 277.0
22.5642 307.0
22.6167 292.0
22.6692 302.0
22.7217 301.0
22.7743 245.0
22.8268 297.0
22.8793 260.0
22.9318 297.0
22.9843 277.0
23.0369 249.0
23.0894 275.0
23.1419 264.0
23.1944 277.0
23.247 292.0
23.2995 295.0
23.352 255.0
23.4045 257.0
23.457 289.0
23.5096 274.0
23.5621 280.0
23.6146 270.0
23.6671 272.0
23.7196 272.0
23.7722 261.0
23.8247 285.0
23.8772 331.0
23.9297 319.0
23.9823 292.0
24.0348 296.0
24.0873 295.0
24.1398 299.0
24.1923 281.0
24.2449 289.0
24.2974 284.0
24.3499 272.0
24.4024 283.0
24.4549 271.0
24.5075 292.0
24.56 294.0
24.6125 302.0
24.665 289.0
24.7175 269.0
24.7701 266.0
24.8226 277.0
24.8751 279.0
24.9276 269.0
24.9802 270.0
25.0327 257.0
25.0852 250.0
25.1377 267.0
25.1902 249.0
25.2428 223.0
25.2953 267.0
25.3478 229.0
25.4003 250.0
25.4528 247.0
25.5054 230.0
25.5579 246.0
25.6104 272.0
25.6629 239.0
25.7154 248.0
25.768 249.0
25.8205 245.0
25.873 225.0
25.9255 258.0
25.9781 255.0
26.0306 248.0
26.0831 254.0
26.1356 228.0
26.1881 231.0
26.2407 217.0
26.2932 218.0
26.3457 214.0
26.3982 231.0
26.4507 205.0
26.5033 200.0
26.5558 204.0
26.6083 204.0
26.6608 218.0
26.7133 228.0
26.7659 227.0
26.8184 223.0
26.8709 231.0
26.9234 214.0
26.976 216.0
27.0285 195.0
27.081 210.0
27.1335 182.0
27.186 206.0
27.2386 193.0
27.2911 180.0
27.3436 182.0
27.3961 155.0
27.4486 165.0
27.5012 189.0
27.5537 187.0
27.6062 193.0
27.6587 199.0
27.7113 185.0
27.7638 243.0
27.8163 198.0
27.8688 180.0
27.9213 169.0
27.9739 187.0
28.0264 232.0
28.0789 215.0
28.1314 206.0
28.1839 198.0
28.2365 206.0
28.289 212.0
28.3415 210.0
28.394 207.0
28.4465 229.0
28.4991 211.0
28.5516 200.0
28.6041 203.0
28.6566 231.0
28.7092 218.0
28.7617 207.0
28.8142 212.0
28.8667 199.0
28.9192 200.0
28.9718 212.0
29.0243 235.0
29.0768 195.0
29.1293 235.0
29.1818 231.0
29.2344 222.0
29.2869 193.0
29.3394 244.0
29.3919 248.0
29.4444 283.0
29.497 305.0
29.5495 314.0
29.602 305.0
29.6545 344.0
29.7071 377.0
29.7596 360.0
29.8121 388.0
29.8646 402.0
29.9171 440.0
29.9697 439.0
30.0222 467.0
30.0747 484.0
30.1272 560.0
30.1797 577.0
30.2323 560.0
30.2848 594.0
30.3373 580.0
30.3898 599.0
30.4424 593.0
30.4949 574.0
30.5474 586.0
30.5999 547.0
30.6524 592.0
30.705 567.0
30.7575 610.0
30.81 599.0
30.8625 615.0
30.915 576.0
30.9676 612.0
31.0201 610.0
31.0726 574.0
31.1251 562.0
31.1776 587.0
31.2302 561.0
31.2827 505.0
31.3352 549.0
31.3877 492.0
31.4403 539.0
31.4928 481.0
31.5453 432.0
31.5978 321.0
31.6503 287.0
31.7029 234.0
31.7554 201.0
31.8079 199.0
31.8604 166.0
31.9129 185.0
31.9655 163.0
32.018 195.0
32.0705 160.0
32.123 169.0
32.1755 138.0
32.2281 153.0
32.2806 141.0
32.3331 142.0
32.3856 142.0
32.4382 145.0
32.4907 161.0
32.5432 140.0
32.5957 138.0
32.6482 152.0
32.7008 146.0
32.7533 124.0
32.8058 138.0
32.8583 147.0
32.9108 138.0
32.9634 157.0
33.0159 141.0
33.0684 166.0
33.1209 161.0
33.1734 175.0
33.226 183.0
33.2785 190.0
33.331 188.0
33.3835 202.0
33.4361 203.0
33.4886 200.0
33.5411 201.0
33.5936 201.0
33.6461 212.0
33.6987 229.0
33.7512 224.0
33.8037 210.0
33.8562 209.0
33.9087 251.0
33.9613 221.0
34.0138 258.0
34.0663 227.0
34.1188 275.0
34.1714 247.0
34.2239 229.0
34.2764 249.0
34.3289 261.0
34.3814 208.0
34.434 245.0
34.4865 231.0
34.539 232.0
34.5915 230.0
34.644 224.0
34.6966 232.0
34.7491 248.0
34.8016 218.0
34.8541 234.0
34.9066 223.0
34.9592 264.0
35.0117 209.0
35.0642 214.0
35.1167 208.0
35.1693 206.0
35.2218 204.0
35.2743 201.0
35.3268 207.0
35.3793 176.0
35.4319 177.0
35.4844 171.0
35.5369 170.0
35.5894 131.0
35.6419 138.0
35.6945 140.0
35.747 139.0
35.7995 112.0
35.852 120.0
35.9045 122.0
35.9571 136.0
36.0096 118.0
36.0621 125.0
36.1146 148.0
36.1672 118.0
36.2197 139.0
36.2722 153.0
36.3247 179.0
36.3772 161.0
36.4298 183.0
36.4823 171.0
36.5348 178.0
36.5873 167.0
36.6398 192.0
36.6924 197.0
36.7449 210.0
36.7974 191.0
36.8499 226.0
36.9024 215.0
36.955 251.0
37.0075 217.0
37.06 234.0
37.1125 249.0
37.1651 245.0
37.2176 250.0
37.2701 251.0
37.3226 270.0
37.3751 292.0
37.4277 270.0
37.4802 296.0
37.5327 266.0
37.5852 287.0
37.6377 298.0
37.6903 317.0
37.7428 274.0
37.7953 295.0
37.8478 308.0
37.9004 286.0
37.9529 292.0
38.0054 296.0
38.0579 303.0
38.1104 301.0
38.163 307.0
38.2155 310.0
38.268 280.0
38.3205 264.0
38.373 284.0
38.4256 274.0
38.4781 282.0
38.5306 256.0
38.5831 259.0
38.6356 265.0
38.6882 254.0
38.7407 262.0
38.7932 238.0
38.8457 183.0
38.8983 209.0
38.9508 178.0
39.0033 164.0
39.0558 134.0
39.1083 137.0
39.1609 120.0
39.2134 136.0
39.2659 107.0
39.3184 115.0
39.3709 95.0
39.4235 104.0
39.476 118.0
39.5285 120.0
39.581 107.0
39.6335 106.0
39.6861 135.0
39.7386 116.0
39.7911 110.0
39.8436 97.0
39.8962 106.0
39.9487 115.0
40.0012 100.0
40.0537 115.0
40.1062 126.0
40.1588 94.0
40.2113 111.0
40.2638 101.0
40.3163 104.0
40.3688 118.0
40.4214 86.0
40.4739 118.0
40.5264 88.0
40.5789 87.0
40.6314 95.0
40.684 115.0
40.7365 88.0
40.789 104.0
40.8415 74.0
40.8941 84.0
40.9466 113.0
40.9991 120.0
41.0516 81.0
41.1041 110.0
41.1567 88.0
41.2092 91.0
41.2617 100.0
41.3142 105.0
41.3667 105.0
41.4193 104.0
41.4718 111.0
41.5243 107.0
41.5768 93.0
41.6294 102.0
41.6819 105.0
41.7344 97.0
41.7869 102.0
41.8394 122.0
41.892 99.0
41.9445 104.0
41.997 104.0
42.0495 123.0
42.102 94.0
42.1546 106.0
42.2071 110.0
42.2596 116.0
42.3121 123.0
42.3646 136.0
42.4172 139.0
42.4697 163.0
42.5222 134.0
42.5747 166.0
42.6273 120.0
42.6798 167.0
42.7323 137.0
42.7848 155.0
42.8373 157.0
42.8899 164.0
42.9424 176.0
42.9949 201.0
43.0474 167.0
43.0999 182.0
43.1525 191.0
43.205 205.0
43.2575 163.0
43.31 177.0
43.3625 189.0
43.4151 195.0
43.4676 202.0
43.5201 200.0
43.5726 235.0
43.6252 214.0
43.6777 187.0
43.7302 210.0
43.7827 197.0
43.8352 209.0
43.8878 217.0
43.9403 207.0
43.9928 223.0
44.0453 226.0
44.0978 229.0
44.1504 234.0
44.2029 215.0
44.2554 210.0
44.3079 212.0
44.3604 204.0
44.413 241.0
44.4655 217.0
44.518 226.0
44.5705 202.0
44.6231 218.0
44.6756 234.0
44.7281 205.0
44.7806 215.0
44.8331 192.0
44.8857 228.0
44.9382 209.0
44.9907 167.0
45.0432 205.0
45.0957 167.0
45.1483 184.0
45.2008 166.0
45.2533 144.0
45.3058 169.0
45.3584 141.0
45.4109 132.0
45.4634 139.0
45.5159 136.0
45.5684 132.0
45.621 130.0
45.6735 133.0
45.726 137.0
45.7785 120.0
45.831 121.0
45.8836 132.0
45.9361 137.0
45.9886 140.0
46.0411 170.0
46.0936 165.0
46.1462 124.0
46.1987 157.0
46.2512 165.0
46.3037 162.0
46.3563 146.0
46.4088 145.0
46.4613 139.0
46.5138 135.0
46.5663 134.0
46.6189 145.0
46.6714 141.0
46.7239 121.0
46.7764 139.0
46.8289 148.0
46.8815 125.0
46.934 139.0
46.9865 124.0
47.039 135.0
47.0915 131.0
47.1441 138.0
47.1966 145.0
47.2491 135.0
47.3016 142.0
47.3542 125.0
47.4067 138.0
47.4592 119.0
47.5117 139.0
47.5642 117.0
47.6168 124.0
47.6693 128.0
47.7218 142.0
47.7743 136.0
47.8268 132.0
47.8794 124.0
47.9319 111.0
47.9844 134.0
48.0369 123.0
48.0895 125.0
48.142 122.0
48.1945 140.0
48.247 121.0
48.2995 127.0
48.3521 144.0
48.4046 103.0
48.4571 114.0
48.5096 122.0
48.5621 129.0
48.6147 131.0
48.6672 109.0
48.7197 127.0
48.7722 133.0
48.8247 131.0
48.8773 136.0
48.9298 132.0
48.9823 144.0
49.0348 136.0
49.0874 125.0
49.1399 161.0
49.1924 129.0
49.2449 155.0
49.2974 150.0
49.35 149.0
49.4025 150.0
49.455 120.0
49.5075 157.0
49.56 128.0
49.6126 152.0
49.6651 143.0
49.7176 139.0
49.7701 149.0
49.8226 146.0
49.8752 144.0
49.9277 144.0
49.9802 149.0
50.0065 122.0