File: Br-Cl_phases/XRD/original/220615_180s_GIXRD.xy
5.00308 43.0
5.0556 45.0
5.10812 31.0
5.16065 38.0
5.21317 36.0
5.26569 30.0
5.31821 36.0
5.37073 36.0
5.42325 46.0
5.47577 31.0
5.52829 37.0
5.58082 38.0
5.63334 39.0
5.68586 35.0
5.73838 26.0
5.7909 26.0
5.84342 35.0
5.89594 38.0
5.94846 41.0
6.00098 33.0
6.05351 43.0
6.10603 36.0
6.15855 21.0
6.21107 35.0
6.26359 36.0
6.31611 32.0
6.36863 34.0
6.42115 38.0
6.47367 38.0
6.5262 29.0
6.57872 27.0
6.63124 33.0
6.68376 30.0
6.73628 27.0
6.7888 36.0
6.84132 38.0
6.89384 33.0
6.94636 40.0
6.99889 28.0
7.05141 26.0
7.10393 39.0
7.15645 34.0
7.20897 34.0
7.26149 37.0
7.31401 37.0
7.36653 36.0
7.41905 39.0
7.47158 34.0
7.5241 30.0
7.57662 32.0
7.62914 30.0
7.68166 35.0
7.73418 32.0
7.7867 36.0
7.83922 37.0
7.89174 31.0
7.94427 30.0
7.99679 34.0
8.04931 30.0
8.10183 32.0
8.15435 33.0
8.20687 40.0
8.25939 23.0
8.31191 33.0
8.36443 32.0
8.41696 29.0
8.46948 31.0
8.522 39.0
8.57452 35.0
8.62704 32.0
8.67956 26.0
8.73208 31.0
8.7846 28.0
8.83713 29.0
8.88965 35.0
8.94217 27.0
8.99469 30.0
9.04721 42.0
9.09973 28.0
9.15225 32.0
9.20477 32.0
9.25729 33.0
9.30982 25.0
9.36234 25.0
9.41486 30.0
9.46738 26.0
9.5199 25.0
9.57242 26.0
9.62494 24.0
9.67746 30.0
9.72998 31.0
9.78251 20.0
9.83503 26.0
9.88755 30.0
9.94007 21.0
9.99259 24.0
10.0451 34.0
10.0976 26.0
10.1502 20.0
10.2027 31.0
10.2552 31.0
10.3077 27.0
10.3602 26.0
10.4128 25.0
10.4653 18.0
10.5178 25.0
10.5703 35.0
10.6228 27.0
10.6754 23.0
10.7279 33.0
10.7804 29.0
10.8329 29.0
10.8854 18.0
10.938 32.0
10.9905 27.0
11.043 27.0
11.0955 18.0
11.1481 22.0
11.2006 27.0
11.2531 30.0
11.3056 18.0
11.3581 29.0
11.4107 24.0
11.4632 18.0
11.5157 15.0
11.5682 26.0
11.6207 20.0
11.6733 25.0
11.7258 26.0
11.7783 18.0
11.8308 26.0
11.8834 40.0
11.9359 19.0
11.9884 28.0
12.0409 15.0
12.0934 17.0
12.146 18.0
12.1985 20.0
12.251 22.0
12.3035 23.0
12.356 30.0
12.4086 24.0
12.4611 21.0
12.5136 19.0
12.5661 30.0
12.6186 25.0
12.6712 24.0
12.7237 26.0
12.7762 24.0
12.8287 21.0
12.8813 31.0
12.9338 26.0
12.9863 20.0
13.0388 21.0
13.0913 17.0
13.1439 26.0
13.1964 24.0
13.2489 25.0
13.3014 24.0
13.3539 22.0
13.4065 24.0
13.459 20.0
13.5115 21.0
13.564 14.0
13.6165 23.0
13.6691 23.0
13.7216 18.0
13.7741 16.0
13.8266 20.0
13.8792 23.0
13.9317 20.0
13.9842 21.0
14.0367 23.0
14.0892 25.0
14.1418 21.0
14.1943 17.0
14.2468 19.0
14.2993 21.0
14.3518 20.0
14.4044 28.0
14.4569 18.0
14.5094 22.0
14.5619 24.0
14.6144 23.0
14.667 21.0
14.7195 20.0
14.772 27.0
14.8245 23.0
14.8771 20.0
14.9296 28.0
14.9821 40.0
15.0346 29.0
15.0871 34.0
15.1397 32.0
15.1922 41.0
15.2447 35.0
15.2972 43.0
15.3497 42.0
15.4023 30.0
15.4548 43.0
15.5073 53.0
15.5598 52.0
15.6124 42.0
15.6649 39.0
15.7174 42.0
15.7699 39.0
15.8224 39.0
15.875 29.0
15.9275 32.0
15.98 35.0
16.0325 20.0
16.085 34.0
16.1376 23.0
16.1901 14.0
16.2426 17.0
16.2951 19.0
16.3476 16.0
16.4002 18.0
16.4527 26.0
16.5052 24.0
16.5577 23.0
16.6103 19.0
16.6628 23.0
16.7153 21.0
16.7678 12.0
16.8203 15.0
16.8729 15.0
16.9254 17.0
16.9779 12.0
17.0304 9.0
17.0829 18.0
17.1355 13.0
17.188 22.0
17.2405 29.0
17.293 19.0
17.3455 19.0
17.3981 18.0
17.4506 18.0
17.5031 22.0
17.5556 19.0
17.6082 20.0
17.6607 18.0
17.7132 18.0
17.7657 17.0
17.8182 20.0
17.8708 20.0
17.9233 13.0
17.9758 25.0
18.0283 13.0
18.0808 9.0
18.1334 14.0
18.1859 18.0
18.2384 20.0
18.2909 12.0
18.3434 19.0
18.396 27.0
18.4485 18.0
18.501 23.0
18.5535 29.0
18.6061 18.0
18.6586 30.0
18.7111 22.0
18.7636 13.0
18.8161 19.0
18.8687 23.0
18.9212 23.0
18.9737 21.0
19.0262 20.0
19.0787 19.0
19.1313 23.0
19.1838 22.0
19.2363 15.0
19.2888 27.0
19.3414 9.0
19.3939 17.0
19.4464 27.0
19.4989 16.0
19.5514 13.0
19.604 26.0
19.6565 18.0
19.709 11.0
19.7615 17.0
19.814 33.0
19.8666 33.0
19.9191 17.0
19.9716 23.0
20.0241 22.0
20.0766 19.0
20.1292 17.0
20.1817 19.0
20.2342 20.0
20.2867 13.0
20.3393 25.0
20.3918 21.0
20.4443 15.0
20.4968 28.0
20.5493 24.0
20.6019 16.0
20.6544 21.0
20.7069 18.0
20.7594 20.0
20.8119 25.0
20.8645 17.0
20.917 25.0
20.9695 26.0
21.022 40.0
21.0745 31.0
21.1271 30.0
21.1796 38.0
21.2321 49.0
21.2846 47.0
21.3372 56.0
21.3897 72.0
21.4422 64.0
21.4947 63.0
21.5472 49.0
21.5998 65.0
21.6523 62.0
21.7048 60.0
21.7573 62.0
21.8098 71.0
21.8624 76.0
21.9149 80.0
21.9674 74.0
22.0199 67.0
22.0725 68.0
22.125 74.0
22.1775 62.0
22.23 69.0
22.2825 72.0
22.3351 55.0
22.3876 60.0
22.4401 68.0
22.4926 75.0
22.5451 68.0
22.5977 41.0
22.6502 42.0
22.7027 37.0
22.7552 25.0
22.8077 28.0
22.8603 17.0
22.9128 15.0
22.9653 19.0
23.0178 13.0
23.0704 23.0
23.1229 18.0
23.1754 23.0
23.2279 14.0
23.2804 12.0
23.333 23.0
23.3855 16.0
23.438 22.0
23.4905 15.0
23.543 13.0
23.5956 17.0
23.6481 16.0
23.7006 11.0
23.7531 16.0
23.8056 9.0
23.8582 22.0
23.9107 17.0
23.9632 17.0
24.0157 27.0
24.0683 24.0
24.1208 20.0
24.1733 20.0
24.2258 17.0
24.2783 20.0
24.3309 17.0
24.3834 15.0
24.4359 10.0
24.4884 13.0
24.5409 16.0
24.5935 14.0
24.646 16.0
24.6985 23.0
24.751 20.0
24.8035 13.0
24.8561 28.0
24.9086 18.0
24.9611 13.0
25.0136 17.0
25.0662 14.0
25.1187 17.0
25.1712 17.0
25.2237 17.0
25.2762 23.0
25.3288 19.0
25.3813 15.0
25.4338 19.0
25.4863 12.0
25.5388 12.0
25.5914 12.0
25.6439 16.0
25.6964 18.0
25.7489 11.0
25.8015 12.0
25.854 19.0
25.9065 15.0
25.959 9.0
26.0115 18.0
26.0641 18.0
26.1166 17.0
26.1691 13.0
26.2216 18.0
26.2741 8.0
26.3267 9.0
26.3792 11.0
26.4317 9.0
26.4842 9.0
26.5367 14.0
26.5893 11.0
26.6418 12.0
26.6943 21.0
26.7468 14.0
26.7994 19.0
26.8519 15.0
26.9044 18.0
26.9569 9.0
27.0094 16.0
27.062 13.0
27.1145 12.0
27.167 11.0
27.2195 11.0
27.272 16.0
27.3246 18.0
27.3771 17.0
27.4296 9.0
27.4821 13.0
27.5346 14.0
27.5872 18.0
27.6397 14.0
27.6922 18.0
27.7447 9.0
27.7973 12.0
27.8498 14.0
27.9023 4.0
27.9548 19.0
28.0073 14.0
28.0599 19.0
28.1124 12.0
28.1649 13.0
28.2174 17.0
28.2699 15.0
28.3225 15.0
28.375 12.0
28.4275 7.0
28.48 11.0
28.5325 12.0
28.5851 13.0
28.6376 12.0
28.6901 9.0
28.7426 12.0
28.7952 16.0
28.8477 13.0
28.9002 12.0
28.9527 12.0
29.0052 15.0
29.0578 14.0
29.1103 16.0
29.1628 17.0
29.2153 12.0
29.2678 15.0
29.3204 13.0
29.3729 15.0
29.4254 9.0
29.4779 17.0
29.5305 13.0
29.583 18.0
29.6355 14.0
29.688 14.0
29.7405 15.0
29.7931 13.0
29.8456 11.0
29.8981 13.0
29.9506 14.0
30.0031 14.0
30.0557 18.0
30.1082 21.0
30.1607 14.0
30.2132 25.0
30.2657 27.0
30.3183 23.0
30.3708 25.0
30.4233 29.0
30.4758 21.0
30.5284 24.0
30.5809 28.0
30.6334 26.0
30.6859 38.0
30.7384 37.0
30.791 33.0
30.8435 28.0
30.896 37.0
30.9485 28.0
31.001 43.0
31.0536 38.0
31.1061 42.0
31.1586 34.0
31.2111 43.0
31.2636 40.0
31.3162 33.0
31.3687 44.0
31.4212 44.0
31.4737 34.0
31.5263 45.0
31.5788 26.0
31.6313 39.0
31.6838 38.0
31.7363 32.0
31.7889 39.0
31.8414 28.0
31.8939 32.0
31.9464 28.0
31.9989 32.0
32.0515 27.0
32.104 27.0
32.1565 25.0
32.209 13.0
32.2615 14.0
32.3141 14.0
32.3666 11.0
32.4191 13.0
32.4716 6.0
32.5242 16.0
32.5767 7.0
32.6292 12.0
32.6817 11.0
32.7342 13.0
32.7868 13.0
32.8393 13.0
32.8918 8.0
32.9443 14.0
32.9968 12.0
33.0494 13.0
33.1019 8.0
33.1544 10.0
33.2069 8.0
33.2595 8.0
33.312 19.0
33.3645 13.0
33.417 14.0
33.4695 12.0
33.5221 8.0
33.5746 7.0
33.6271 14.0
33.6796 8.0
33.7321 13.0
33.7847 12.0
33.8372 13.0
33.8897 13.0
33.9422 17.0
33.9947 19.0
34.0473 11.0
34.0998 4.0
34.1523 6.0
34.2048 11.0
34.2574 12.0
34.3099 26.0
34.3624 13.0
34.4149 14.0
34.4674 7.0
34.52 13.0
34.5725 6.0
34.625 11.0
34.6775 15.0
34.73 13.0
34.7826 10.0
34.8351 11.0
34.8876 10.0
34.9401 9.0
34.9926 12.0
35.0452 15.0
35.0977 17.0
35.1502 12.0
35.2027 10.0
35.2553 11.0
35.3078 11.0
35.3603 20.0
35.4128 10.0
35.4653 10.0
35.5179 8.0
35.5704 14.0
35.6229 17.0
35.6754 21.0
35.7279 12.0
35.7805 17.0
35.833 12.0
35.8855 15.0
35.938 17.0
35.9905 7.0
36.0431 7.0
36.0956 16.0
36.1481 11.0
36.2006 9.0
36.2532 4.0
36.3057 5.0
36.3582 8.0
36.4107 7.0
36.4632 7.0
36.5158 8.0
36.5683 9.0
36.6208 6.0
36.6733 6.0
36.7258 8.0
36.7784 7.0
36.8309 5.0
36.8834 9.0
36.9359 12.0
36.9885 12.0
37.041 8.0
37.0935 10.0
37.146 16.0
37.1985 13.0
37.2511 7.0
37.3036 13.0
37.3561 13.0
37.4086 13.0
37.4611 12.0
37.5137 13.0
37.5662 18.0
37.6187 11.0
37.6712 11.0
37.7237 18.0
37.7763 22.0
37.8288 16.0
37.8813 13.0
37.9338 7.0
37.9864 18.0
38.0389 29.0
38.0914 25.0
38.1439 27.0
38.1964 20.0
38.249 18.0
38.3015 21.0
38.354 16.0
38.4065 19.0
38.459 22.0
38.5116 10.0
38.5641 21.0
38.6166 11.0
38.6691 16.0
38.7216 18.0
38.7742 23.0
38.8267 17.0
38.8792 20.0
38.9317 15.0
38.9843 19.0
39.0368 26.0
39.0893 19.0
39.1418 18.0
39.1943 16.0
39.2469 18.0
39.2994 20.0
39.3519 17.0
39.4044 14.0
39.4569 20.0
39.5095 18.0
39.562 19.0
39.6145 12.0
39.667 15.0
39.7195 9.0
39.7721 9.0
39.8246 11.0
39.8771 8.0
39.9296 6.0
39.9822 11.0
40.0347 6.0
40.0872 5.0
40.1397 5.0
40.1922 6.0
40.2448 6.0
40.2973 8.0
40.3498 3.0
40.4023 5.0
40.4548 12.0
40.5074 4.0
40.5599 8.0
40.6124 3.0
40.6649 6.0
40.7175 6.0
40.77 6.0
40.8225 8.0
40.875 5.0
40.9275 4.0
40.9801 8.0
41.0326 7.0
41.0851 8.0
41.1376 7.0
41.1901 3.0
41.2427 10.0
41.2952 5.0
41.3477 10.0
41.4002 10.0
41.4527 6.0
41.5053 6.0
41.5578 8.0
41.6103 8.0
41.6628 11.0
41.7154 4.0
41.7679 4.0
41.8204 7.0
41.8729 9.0
41.9254 7.0
41.978 2.0
42.0305 3.0
42.083 8.0
42.1355 4.0
42.188 9.0
42.2406 5.0
42.2931 2.0
42.3456 7.0
42.3981 3.0
42.4506 3.0
42.5032 7.0
42.5557 6.0
42.6082 6.0
42.6607 6.0
42.7133 3.0
42.7658 5.0
42.8183 7.0
42.8708 6.0
42.9233 5.0
42.9759 7.0
43.0284 6.0
43.0809 7.0
43.1334 3.0
43.1859 9.0
43.2385 2.0
43.291 9.0
43.3435 9.0
43.396 8.0
43.4486 11.0
43.5011 7.0
43.5536 6.0
43.6061 9.0
43.6586 8.0
43.7112 8.0
43.7637 8.0
43.8162 3.0
43.8687 5.0
43.9212 9.0
43.9738 8.0
44.0263 13.0
44.0788 10.0
44.1313 11.0
44.1838 10.0
44.2364 11.0
44.2889 6.0
44.3414 15.0
44.3939 5.0
44.4465 14.0
44.499 13.0
44.5515 11.0
44.604 15.0
44.6565 11.0
44.7091 17.0
44.7616 15.0
44.8141 12.0
44.8666 21.0
44.9191 18.0
44.9717 11.0
45.0242 11.0
45.0767 11.0
45.1292 13.0
45.1817 16.0
45.2343 16.0
45.2868 8.0
45.3393 12.0
45.3918 5.0
45.4444 17.0
45.4969 11.0
45.5494 10.0
45.6019 7.0
45.6544 10.0
45.707 8.0
45.7595 12.0
45.812 12.0
45.8645 7.0
45.917 9.0
45.9696 9.0
46.0221 11.0
46.0746 9.0
46.1271 8.0
46.1796 12.0
46.2322 15.0
46.2847 6.0
46.3372 6.0
46.3897 12.0
46.4423 7.0
46.4948 12.0
46.5473 6.0
46.5998 10.0
46.6523 13.0
46.7049 12.0
46.7574 11.0
46.8099 6.0
46.8624 6.0
46.9149 10.0
46.9675 7.0
47.02 5.0
47.0725 8.0
47.125 16.0
47.1776 1.0
47.2301 8.0
47.2826 5.0
47.3351 11.0
47.3876 13.0
47.4402 4.0
47.4927 6.0
47.5452 13.0
47.5977 14.0
47.6502 13.0
47.7028 8.0
47.7553 6.0
47.8078 7.0
47.8603 11.0
47.9128 9.0
47.9654 5.0
48.0179 15.0
48.0704 9.0
48.1229 6.0
48.1755 6.0
48.228 7.0
48.2805 9.0
48.333 7.0
48.3855 5.0
48.4381 7.0
48.4906 11.0
48.5431 6.0
48.5956 11.0
48.6481 11.0
48.7007 4.0
48.7532 5.0
48.8057 5.0
48.8582 9.0
48.9107 10.0
48.9633 8.0
49.0158 6.0
49.0683 3.0
49.1208 6.0
49.1734 11.0
49.2259 8.0
49.2784 9.0
49.3309 8.0
49.3834 8.0
49.436 12.0
49.4885 13.0
49.541 12.0
49.5935 10.0
49.646 12.0
49.6986 7.0
49.7511 8.0
49.8036 6.0
49.8561 10.0
49.9086 9.0
49.9612 13.0
50.0137 8.0
50.0662 12.0
50.1187 16.0
50.1713 7.0
50.2238 9.0
50.2763 8.0
50.3288 9.0
50.3813 9.0
50.4339 8.0
50.4864 4.0
50.5389 4.0
50.5914 5.0
50.6439 11.0
50.6965 6.0
50.749 10.0
50.8015 6.0
50.854 16.0
50.9066 5.0
50.9591 12.0
51.0116 12.0
51.0641 7.0
51.1166 5.0
51.1692 7.0
51.2217 7.0
51.2742 6.0
51.3267 6.0
51.3792 14.0
51.4318 13.0
51.4843 8.0
51.5368 11.0
51.5893 6.0
51.6418 9.0
51.6944 3.0
51.7469 7.0
51.7994 10.0
51.8519 5.0
51.9045 4.0
51.957 11.0
52.0095 5.0
52.062 6.0
52.1145 9.0
52.1671 4.0
52.2196 8.0
52.2721 6.0
52.3246 7.0
52.3771 8.0
52.4297 2.0
52.4822 5.0
52.5347 6.0
52.5872 7.0
52.6397 5.0
52.6923 7.0
52.7448 7.0
52.7973 1.0
52.8498 3.0
52.9024 2.0
52.9549 5.0
53.0074 7.0
53.0599 1.0
53.1124 6.0
53.165 10.0
53.2175 4.0
53.27 6.0
53.3225 6.0
53.375 7.0
53.4276 7.0
53.4801 11.0
53.5326 3.0
53.5851 4.0
53.6376 8.0
53.6902 3.0
53.7427 4.0
53.7952 5.0
53.8477 3.0
53.9003 7.0
53.9528 10.0
54.0053 5.0
54.0578 7.0
54.1103 4.0
54.1629 8.0
54.2154 9.0
54.2679 11.0
54.3204 9.0
54.3729 5.0
54.4255 7.0
54.478 6.0
54.5305 2.0
54.583 5.0
54.6356 1.0
54.6881 9.0
54.7406 9.0
54.7931 3.0
54.8456 5.0
54.8982 6.0
54.9507 20.0
55.0032 6.0
55.0557 7.0
55.1082 3.0
55.1608 4.0
55.2133 6.0
55.2658 7.0
55.3183 6.0
55.3708 10.0
55.4234 9.0
55.4759 9.0
55.5284 11.0
55.5809 6.0
55.6335 4.0
55.686 12.0
55.7385 9.0
55.791 5.0
55.8435 9.0
55.8961 5.0
55.9486 7.0
56.0011 5.0
56.0536 1.0
56.1061 11.0
56.1587 8.0
56.2112 4.0
56.2637 9.0
56.3162 2.0
56.3687 6.0
56.4213 11.0
56.4738 7.0
56.5263 2.0
56.5788 11.0
56.6314 1.0
56.6839 9.0
56.7364 7.0
56.7889 3.0
56.8414 7.0
56.894 7.0
56.9465 5.0
56.999 5.0
57.0515 4.0
57.104 5.0
57.1566 10.0
57.2091 11.0
57.2616 5.0
57.3141 2.0
57.3666 9.0
57.4192 11.0
57.4717 12.0
57.5242 8.0
57.5767 10.0
57.6293 10.0
57.6818 9.0
57.7343 6.0
57.7868 2.0
57.8393 7.0
57.8919 6.0
57.9444 6.0
57.9969 2.0
58.0494 9.0
58.1019 9.0
58.1545 8.0
58.207 4.0
58.2595 4.0
58.312 9.0
58.3646 8.0
58.4171 5.0
58.4696 6.0
58.5221 6.0
58.5746 7.0
58.6272 4.0
58.6797 5.0
58.7322 5.0
58.7847 10.0
58.8372 8.0
58.8898 2.0
58.9423 7.0
58.9948 5.0
59.0473 7.0
59.0998 7.0
59.1524 13.0
59.2049 2.0
59.2574 8.0
59.3099 8.0
59.3625 3.0
59.415 7.0
59.4675 13.0
59.52 12.0
59.5725 7.0
59.6251 5.0
59.6776 4.0
59.7301 9.0
59.7826 13.0
59.8351 12.0
59.8877 4.0
59.9402 5.0
59.9927 7.0
60.0452 6.0
60.0977 7.0
60.1503 5.0
60.2028 6.0
60.2553 9.0
60.3078 14.0
60.3604 9.0
60.4129 7.0
60.4654 14.0
60.5179 5.0
60.5704 4.0
60.623 8.0
60.6755 9.0
60.728 10.0
60.7805 4.0
60.833 7.0
60.8856 10.0
60.9381 7.0
60.9906 3.0
61.0431 9.0
61.0957 11.0
61.1482 11.0
61.2007 8.0
61.2532 7.0
61.3057 17.0
61.3583 9.0
61.4108 14.0
61.4633 2.0
61.5158 9.0
61.5683 7.0
61.6209 10.0
61.6734 7.0
61.7259 13.0
61.7784 13.0
61.8309 6.0
61.8835 11.0
61.936 8.0
61.9885 15.0
62.041 5.0
62.0936 6.0
62.1461 10.0
62.1986 6.0
62.2511 3.0
62.3036 8.0
62.3562 8.0
62.4087 8.0
62.4612 4.0
62.5137 3.0
62.5662 6.0
62.6188 2.0
62.6713 6.0
62.7238 9.0
62.7763 1.0
62.8288 7.0
62.8814 8.0
62.9339 3.0
62.9864 5.0
63.0389 6.0
63.0915 10.0
63.144 4.0
63.1965 4.0
63.249 1.0
63.3015 3.0
63.3541 11.0
63.4066 8.0
63.4591 4.0
63.5116 5.0
63.5641 8.0
63.6167 7.0
63.6692 5.0
63.7217 6.0
63.7742 5.0
63.8267 8.0
63.8793 3.0
63.9318 2.0
63.9843 1.0
64.0368 6.0
64.0894 4.0
64.1419 12.0
64.1944 5.0
64.2469 4.0
64.2994 7.0
64.352 3.0
64.4045 5.0
64.457 3.0
64.5095 8.0
64.562 5.0
64.6146 2.0
64.6671 6.0
64.7196 7.0
64.7721 2.0
64.8247 4.0
64.8772 9.0
64.9297 5.0
64.9822 8.0
65.0347 5.0
65.0873 1.0
65.1398 1.0
65.1923 9.0
65.2448 6.0
65.2973 2.0
65.3499 4.0
65.4024 5.0
65.4549 4.0
65.5074 8.0
65.5599 3.0
65.6125 5.0
65.665 6.0
65.7175 5.0
65.77 4.0
65.8226 6.0
65.8751 3.0
65.9276 3.0
65.9801 9.0
66.0326 8.0
66.0852 4.0
66.1377 1.0
66.1902 7.0
66.2427 3.0
66.2952 4.0
66.3478 6.0
66.4003 7.0
66.4528 5.0
66.5053 6.0
66.5578 3.0
66.6104 6.0
66.6629 10.0
66.7154 9.0
66.7679 5.0
66.8205 4.0
66.873 6.0
66.9255 6.0
66.978 10.0
67.0305 5.0
67.0831 5.0
67.1356 8.0
67.1881 6.0
67.2406 5.0
67.2931 4.0
67.3457 6.0
67.3982 0.0
67.4507 4.0
67.5032 5.0
67.5557 5.0
67.6083 6.0
67.6608 4.0
67.7133 6.0
67.7658 6.0
67.8184 3.0
67.8709 6.0
67.9234 5.0
67.9759 6.0
68.0284 5.0
68.081 5.0
68.1335 6.0
68.186 0.0
68.2385 8.0
68.291 7.0
68.3436 5.0
68.3961 12.0
68.4486 8.0
68.5011 0.0
68.5537 8.0
68.6062 7.0
68.6587 5.0
68.7112 3.0
68.7637 1.0
68.8163 1.0
68.8688 6.0
68.9213 6.0
68.9738 8.0
69.0263 6.0
69.0789 4.0
69.1314 3.0
69.1839 4.0
69.2364 2.0
69.2889 5.0
69.3415 3.0
69.394 4.0
69.4465 3.0
69.499 5.0
69.5516 4.0
69.6041 4.0
69.6566 6.0
69.7091 5.0
69.7616 4.0
69.8142 3.0
69.8667 4.0
69.9192 5.0
69.9717 6.0
70.0242 5.0
70.0768 7.0
70.1293 11.0
70.1818 5.0
70.2343 3.0
70.2868 5.0
70.3394 3.0
70.3919 8.0
70.4444 6.0
70.4969 9.0
70.5495 2.0
70.602 6.0
70.6545 9.0
70.707 5.0
70.7595 6.0
70.8121 4.0
70.8646 5.0
70.9171 4.0
70.9696 4.0
71.0221 4.0
71.0747 5.0
71.1272 4.0
71.1797 4.0
71.2322 7.0
71.2847 8.0
71.3373 8.0
71.3898 3.0
71.4423 8.0
71.4948 10.0
71.5474 7.0
71.5999 1.0
71.6524 7.0
71.7049 2.0
71.7574 3.0
71.81 3.0
71.8625 4.0
71.915 3.0
71.9675 4.0
72.02 5.0
72.0726 5.0
72.1251 8.0
72.1776 4.0
72.2301 6.0
72.2827 6.0
72.3352 9.0
72.3877 0.0
72.4402 4.0
72.4927 4.0
72.5453 2.0
72.5978 3.0
72.6503 2.0
72.7028 2.0
72.7553 3.0
72.8079 4.0
72.8604 3.0
72.9129 9.0
72.9654 2.0
73.0179 4.0
73.0705 3.0
73.123 2.0
73.1755 5.0
73.228 7.0
73.2806 4.0
73.3331 2.0
73.3856 6.0
73.4381 9.0
73.4906 4.0
73.5432 3.0
73.5957 3.0
73.6482 5.0
73.7007 4.0
73.7532 4.0
73.8058 4.0
73.8583 0.0
73.9108 7.0
73.9633 6.0
74.0158 5.0
74.0684 3.0
74.1209 11.0
74.1734 3.0
74.2259 3.0
74.2785 6.0
74.331 6.0
74.3835 6.0
74.436 3.0
74.4885 10.0
74.5411 3.0
74.5936 6.0
74.6461 4.0
74.6986 4.0
74.7511 3.0
74.8037 7.0
74.8562 4.0
74.9087 3.0
74.9612 4.0
75.0137 4.0
75.0663 4.0
75.1188 1.0
75.1713 6.0
75.2238 1.0
75.2764 5.0
75.3289 4.0
75.3814 10.0
75.4339 11.0
75.4864 5.0
75.539 6.0
75.5915 2.0
75.644 8.0
75.6965 9.0
75.749 8.0
75.8016 3.0
75.8541 5.0
75.9066 3.0
75.9591 5.0
76.0117 5.0
76.0642 8.0
76.1167 5.0
76.1692 6.0
76.2217 7.0
76.2743 6.0
76.3268 7.0
76.3793 5.0
76.4318 5.0
76.4843 1.0
76.5369 2.0
76.5894 5.0
76.6419 6.0
76.6944 3.0
76.7469 4.0
76.7995 5.0
76.852 6.0
76.9045 7.0
76.957 7.0
77.0096 11.0
77.0621 5.0
77.1146 2.0
77.1671 7.0
77.2196 3.0
77.2722 4.0
77.3247 4.0
77.3772 10.0
77.4297 7.0
77.4822 1.0
77.5348 3.0
77.5873 7.0
77.6398 6.0
77.6923 2.0
77.7448 9.0
77.7974 2.0
77.8499 7.0
77.9024 1.0
77.9549 2.0
78.0075 8.0
78.06 5.0
78.1125 9.0
78.165 6.0
78.2175 6.0
78.2701 2.0
78.3226 8.0
78.3751 1.0
78.4276 5.0
78.4801 4.0
78.5327 4.0
78.5852 4.0
78.6377 7.0
78.6902 3.0
78.7428 3.0
78.7953 5.0
78.8478 4.0
78.9003 2.0
78.9528 4.0
79.0054 4.0
79.0579 2.0
79.1104 3.0
79.1629 4.0
79.2154 4.0
79.268 11.0
79.3205 3.0
79.373 4.0
79.4255 3.0
79.478 5.0
79.5306 2.0
79.5831 6.0
79.6356 2.0
79.6881 2.0
79.7407 7.0
79.7932 4.0
79.8457 0.0
79.8982 2.0
79.9507 4.0
79.9967 1.0