File: Br-Cl_phases/XRD/original/220615_13s_GIXRD.xy
10.0116 340.0
10.0642 383.0
10.1167 422.0
10.1692 371.0
10.2217 356.0
10.2742 379.0
10.3268 404.0
10.3793 380.0
10.4318 400.0
10.4843 350.0
10.5368 359.0
10.5894 343.0
10.6419 363.0
10.6944 369.0
10.7469 370.0
10.7994 368.0
10.852 356.0
10.9045 361.0
10.957 346.0
11.0095 349.0
11.0621 349.0
11.1146 350.0
11.1671 357.0
11.2196 351.0
11.2721 367.0
11.3247 363.0
11.3772 352.0
11.4297 379.0
11.4822 360.0
11.5347 364.0
11.5873 354.0
11.6398 333.0
11.6923 329.0
11.7448 324.0
11.7973 307.0
11.8499 338.0
11.9024 321.0
11.9549 314.0
12.0074 360.0
12.06 329.0
12.1125 353.0
12.165 315.0
12.2175 326.0
12.27 328.0
12.3226 312.0
12.3751 350.0
12.4276 352.0
12.4801 380.0
12.5326 326.0
12.5852 333.0
12.6377 302.0
12.6902 340.0
12.7427 280.0
12.7953 361.0
12.8478 323.0
12.9003 319.0
12.9528 317.0
13.0053 329.0
13.0579 324.0
13.1104 315.0
13.1629 297.0
13.2154 330.0
13.2679 273.0
13.3205 311.0
13.373 299.0
13.4255 299.0
13.478 305.0
13.5305 291.0
13.5831 357.0
13.6356 319.0
13.6881 283.0
13.7406 293.0
13.7932 283.0
13.8457 307.0
13.8982 282.0
13.9507 282.0
14.0032 325.0
14.0558 288.0
14.1083 287.0
14.1608 292.0
14.2133 290.0
14.2658 300.0
14.3184 273.0
14.3709 327.0
14.4234 296.0
14.4759 286.0
14.5284 276.0
14.581 283.0
14.6335 280.0
14.686 309.0
14.7385 296.0
14.7911 294.0
14.8436 304.0
14.8961 304.0
14.9486 300.0
15.0011 341.0
15.0537 400.0
15.1062 440.0
15.1587 465.0
15.2112 515.0
15.2637 564.0
15.3163 573.0
15.3688 605.0
15.4213 637.0
15.4738 633.0
15.5263 629.0
15.5789 651.0
15.6314 649.0
15.6839 685.0
15.7364 698.0
15.789 649.0
15.8415 596.0
15.894 615.0
15.9465 509.0
15.999 411.0
16.0516 394.0
16.1041 307.0
16.1566 299.0
16.2091 275.0
16.2616 256.0
16.3142 281.0
16.3667 271.0
16.4192 238.0
16.4717 267.0
16.5243 254.0
16.5768 291.0
16.6293 276.0
16.6818 272.0
16.7343 271.0
16.7869 270.0
16.8394 241.0
16.8919 278.0
16.9444 236.0
16.9969 261.0
17.0495 255.0
17.102 237.0
17.1545 248.0
17.207 288.0
17.2595 274.0
17.3121 283.0
17.3646 258.0
17.4171 294.0
17.4696 271.0
17.5222 267.0
17.5747 276.0
17.6272 257.0
17.6797 287.0
17.7322 255.0
17.7848 274.0
17.8373 274.0
17.8898 277.0
17.9423 280.0
17.9948 256.0
18.0474 296.0
18.0999 292.0
18.1524 271.0
18.2049 274.0
18.2574 278.0
18.31 296.0
18.3625 273.0
18.415 294.0
18.4675 281.0
18.5201 280.0
18.5726 285.0
18.6251 271.0
18.6776 288.0
18.7301 230.0
18.7827 295.0
18.8352 316.0
18.8877 270.0
18.9402 308.0
18.9927 287.0
19.0453 307.0
19.0978 252.0
19.1503 265.0
19.2028 261.0
19.2553 284.0
19.3079 289.0
19.3604 286.0
19.4129 283.0
19.4654 301.0
19.518 290.0
19.5705 307.0
19.623 288.0
19.6755 317.0
19.728 291.0
19.7806 309.0
19.8331 293.0
19.8856 313.0
19.9381 274.0
19.9906 290.0
20.0432 322.0
20.0957 293.0
20.1482 280.0
20.2007 307.0
20.2533 307.0
20.3058 355.0
20.3583 308.0
20.4108 312.0
20.4633 309.0
20.5159 297.0
20.5684 282.0
20.6209 317.0
20.6734 318.0
20.7259 298.0
20.7785 351.0
20.831 359.0
20.8835 298.0
20.936 314.0
20.9885 340.0
21.0411 345.0
21.0936 332.0
21.1461 329.0
21.1986 378.0
21.2512 399.0
21.3037 453.0
21.3562 572.0
21.4087 611.0
21.4612 728.0
21.5138 905.0
21.5663 921.0
21.6188 1037.0
21.6713 1039.0
21.7238 1055.0
21.7764 1082.0
21.8289 1106.0
21.8814 1095.0
21.9339 1075.0
21.9864 1094.0
22.039 1151.0
22.0915 1097.0
22.144 1081.0
22.1965 1094.0
22.2491 1111.0
22.3016 1088.0
22.3541 1068.0
22.4066 1072.0
22.4591 1000.0
22.5117 997.0
22.5642 957.0
22.6167 829.0
22.6692 706.0
22.7217 583.0
22.7743 459.0
22.8268 428.0
22.8793 344.0
22.9318 329.0
22.9843 290.0
23.0369 283.0
23.0894 305.0
23.1419 333.0
23.1944 283.0
23.247 276.0
23.2995 277.0
23.352 294.0
23.4045 273.0
23.457 281.0
23.5096 262.0
23.5621 235.0
23.6146 257.0
23.6671 239.0
23.7196 232.0
23.7722 248.0
23.8247 221.0
23.8772 272.0
23.9297 268.0
23.9823 237.0
24.0348 260.0
24.0873 241.0
24.1398 238.0
24.1923 235.0
24.2449 242.0
24.2974 257.0
24.3499 247.0
24.4024 223.0
24.4549 246.0
24.5075 230.0
24.56 247.0
24.6125 217.0
24.665 231.0
24.7175 220.0
24.7701 263.0
24.8226 245.0
24.8751 244.0
24.9276 251.0
24.9802 233.0
25.0327 210.0
25.0852 253.0
25.1377 221.0
25.1902 262.0
25.2428 265.0
25.2953 250.0
25.3478 239.0
25.4003 255.0
25.4528 218.0
25.5054 260.0
25.5579 220.0
25.6104 239.0
25.6629 200.0
25.7154 228.0
25.768 246.0
25.8205 248.0
25.873 224.0
25.9255 213.0
25.9781 214.0
26.0306 216.0
26.0831 213.0
26.1356 199.0
26.1881 198.0
26.2407 207.0
26.2932 198.0
26.3457 208.0
26.3982 206.0
26.4507 224.0
26.5033 183.0
26.5558 176.0
26.6083 205.0
26.6608 195.0
26.7133 190.0
26.7659 188.0
26.8184 195.0
26.8709 181.0
26.9234 198.0
26.976 204.0
27.0285 173.0
27.081 206.0
27.1335 196.0
27.186 200.0
27.2386 190.0
27.2911 171.0
27.3436 193.0
27.3961 167.0
27.4486 192.0
27.5012 175.0
27.5537 201.0
27.6062 189.0
27.6587 180.0
27.7113 203.0
27.7638 187.0
27.8163 175.0
27.8688 184.0
27.9213 202.0
27.9739 192.0
28.0264 194.0
28.0789 169.0
28.1314 193.0
28.1839 201.0
28.2365 191.0
28.289 166.0
28.3415 184.0
28.394 174.0
28.4465 162.0
28.4991 193.0
28.5516 189.0
28.6041 170.0
28.6566 166.0
28.7092 165.0
28.7617 193.0
28.8142 188.0
28.8667 200.0
28.9192 177.0
28.9718 181.0
29.0243 182.0
29.0768 186.0
29.1293 150.0
29.1818 181.0
29.2344 181.0
29.2869 187.0
29.3394 166.0
29.3919 166.0
29.4444 198.0
29.497 172.0
29.5495 195.0
29.602 198.0
29.6545 168.0
29.7071 167.0
29.7596 163.0
29.8121 175.0
29.8646 170.0
29.9171 184.0
29.9697 165.0
30.0222 173.0
30.0747 184.0
30.1272 186.0
30.1797 215.0
30.2323 192.0
30.2848 212.0
30.3373 230.0
30.3898 232.0
30.4424 254.0
30.4949 235.0
30.5474 274.0
30.5999 319.0
30.6524 373.0
30.705 369.0
30.7575 442.0
30.81 436.0
30.8625 455.0
30.915 478.0
30.9676 477.0
31.0201 499.0
31.0726 543.0
31.1251 500.0
31.1776 521.0
31.2302 491.0
31.2827 544.0
31.3352 535.0
31.3877 503.0
31.4403 580.0
31.4928 539.0
31.5453 552.0
31.5978 557.0
31.6503 578.0
31.7029 564.0
31.7554 556.0
31.8079 529.0
31.8604 534.0
31.9129 555.0
31.9655 557.0
32.018 553.0
32.0705 502.0
32.123 479.0
32.1755 417.0
32.2281 431.0
32.2806 378.0
32.3331 309.0
32.3856 277.0
32.4382 225.0
32.4907 185.0
32.5432 165.0
32.5957 156.0
32.6482 146.0
32.7008 163.0
32.7533 162.0
32.8058 151.0
32.8583 132.0
32.9108 157.0
32.9634 145.0
33.0159 165.0
33.0684 131.0
33.1209 135.0
33.1734 141.0
33.226 136.0
33.2785 134.0
33.331 158.0
33.3835 122.0
33.4361 134.0
33.4886 130.0
33.5411 128.0
33.5936 140.0
33.6461 141.0
33.6987 131.0
33.7512 115.0
33.8037 129.0
33.8562 140.0
33.9087 137.0
33.9613 138.0
34.0138 133.0
34.0663 133.0
34.1188 126.0
34.1714 138.0
34.2239 156.0
34.2764 156.0
34.3289 156.0
34.3814 168.0
34.434 159.0
34.4865 170.0
34.539 175.0
34.5915 162.0
34.644 187.0
34.6966 181.0
34.7491 189.0
34.8016 182.0
34.8541 201.0
34.9066 203.0
34.9592 179.0
35.0117 189.0
35.0642 199.0
35.1167 197.0
35.1693 207.0
35.2218 184.0
35.2743 184.0
35.3268 196.0
35.3793 201.0
35.4319 207.0
35.4844 208.0
35.5369 210.0
35.5894 181.0
35.6419 199.0
35.6945 162.0
35.747 173.0
35.7995 160.0
35.852 185.0
35.9045 164.0
35.9571 178.0
36.0096 181.0
36.0621 158.0
36.1146 162.0
36.1672 151.0
36.2197 147.0
36.2722 162.0
36.3247 135.0
36.3772 120.0
36.4298 132.0
36.4823 119.0
36.5348 128.0
36.5873 115.0
36.6398 124.0
36.6924 130.0
36.7449 121.0
36.7974 127.0
36.8499 118.0
36.9024 119.0
36.955 111.0
37.0075 118.0
37.06 125.0
37.1125 118.0
37.1651 113.0
37.2176 123.0
37.2701 118.0
37.3226 129.0
37.3751 137.0
37.4277 139.0
37.4802 138.0
37.5327 175.0
37.5852 167.0
37.6377 184.0
37.6903 201.0
37.7428 193.0
37.7953 201.0
37.8478 231.0
37.9004 229.0
37.9529 225.0
38.0054 241.0
38.0579 256.0
38.1104 242.0
38.163 279.0
38.2155 290.0
38.268 269.0
38.3205 268.0
38.373 295.0
38.4256 279.0
38.4781 296.0
38.5306 287.0
38.5831 283.0
38.6356 296.0
38.6882 292.0
38.7407 320.0
38.7932 306.0
38.8457 330.0
38.8983 273.0
38.9508 295.0
39.0033 330.0
39.0558 298.0
39.1083 294.0
39.1609 292.0
39.2134 289.0
39.2659 291.0
39.3184 259.0
39.3709 279.0
39.4235 307.0
39.476 280.0
39.5285 278.0
39.581 276.0
39.6335 240.0
39.6861 218.0
39.7386 225.0
39.7911 172.0
39.8436 189.0
39.8962 155.0
39.9487 134.0
40.0012 131.0
40.0537 117.0
40.1062 117.0
40.1588 101.0
40.2113 104.0
40.2638 106.0
40.3163 127.0
40.3688 96.0
40.4214 103.0
40.4739 117.0
40.5264 102.0
40.5789 100.0
40.6314 107.0
40.684 93.0
40.7365 98.0
40.789 107.0
40.8415 97.0
40.8941 110.0
40.9466 97.0
40.9991 102.0
41.0516 98.0
41.1041 89.0
41.1567 115.0
41.2092 114.0
41.2617 97.0
41.3142 100.0
41.3667 101.0
41.4193 91.0
41.4718 106.0
41.5243 97.0
41.5768 105.0
41.6294 91.0
41.6819 103.0
41.7344 82.0
41.7869 109.0
41.8394 93.0
41.892 109.0
41.9445 91.0
41.997 112.0
42.0495 110.0
42.102 105.0
42.1546 80.0
42.2071 96.0
42.2596 109.0
42.3121 127.0
42.3646 104.0
42.4172 122.0
42.4697 100.0
42.5222 119.0
42.5747 105.0
42.6273 88.0
42.6798 110.0
42.7323 90.0
42.7848 85.0
42.8373 105.0
42.8899 81.0
42.9424 95.0
42.9949 100.0
43.0474 111.0
43.0999 100.0
43.1525 106.0
43.205 87.0
43.2575 104.0
43.31 117.0
43.3625 112.0
43.4151 115.0
43.4676 98.0
43.5201 107.0
43.5726 95.0
43.6252 122.0
43.6777 115.0
43.7302 121.0
43.7827 134.0
43.8352 120.0
43.8878 173.0
43.9403 151.0
43.9928 165.0
44.0453 154.0
44.0978 151.0
44.1504 165.0
44.2029 165.0
44.2554 155.0
44.3079 171.0
44.3604 166.0
44.413 174.0
44.4655 160.0
44.518 184.0
44.5705 184.0
44.6231 177.0
44.6756 209.0
44.7281 204.0
44.7806 180.0
44.8331 201.0
44.8857 202.0
44.9382 196.0
44.9907 207.0
45.0432 200.0
45.0957 172.0
45.1483 205.0
45.2008 197.0
45.2533 174.0
45.3058 161.0
45.3584 199.0
45.4109 220.0
45.4634 199.0
45.5159 211.0
45.5684 180.0
45.621 189.0
45.6735 180.0
45.726 190.0
45.7785 167.0
45.831 182.0
45.8836 162.0
45.9361 173.0
45.9886 148.0
46.0411 174.0
46.0936 148.0
46.1462 152.0
46.1987 159.0
46.2512 142.0
46.3037 109.0
46.3563 127.0
46.4088 122.0
46.4613 105.0
46.5138 104.0
46.5663 116.0
46.6189 117.0
46.6714 125.0
46.7239 114.0
46.7764 118.0
46.8289 119.0
46.8815 107.0
46.934 113.0
46.9865 117.0
47.039 110.0
47.0915 101.0
47.1441 124.0
47.1966 107.0
47.2491 121.0
47.3016 85.0
47.3542 132.0
47.4067 90.0
47.4592 121.0
47.5117 121.0
47.5642 109.0
47.6168 124.0
47.6693 94.0
47.7218 125.0
47.7743 98.0
47.8268 145.0
47.8794 122.0
47.9319 106.0
47.9844 112.0
48.0369 116.0
48.0895 136.0
48.142 91.0
48.1945 128.0
48.247 102.0
48.2995 122.0
48.3521 122.0
48.4046 129.0
48.4571 110.0
48.5096 115.0
48.5621 110.0
48.6147 98.0
48.6672 118.0
48.7197 124.0
48.7722 130.0
48.8247 117.0
48.8773 108.0
48.9298 116.0
48.9823 107.0
49.0348 108.0
49.0874 118.0
49.1399 97.0
49.1924 115.0
49.2449 111.0
49.2974 143.0
49.35 112.0
49.4025 106.0
49.455 118.0
49.5075 119.0
49.56 132.0
49.6126 118.0
49.6651 139.0
49.7176 144.0
49.7701 112.0
49.8226 132.0
49.8752 131.0
49.9277 105.0
49.9802 126.0
50.0065 142.0