File: Br-Cl_phases/XRD/original/220615_120s_GIXRD.xy
10.0116 371.0
10.0642 372.0
10.1167 362.0
10.1692 370.0
10.2217 355.0
10.2742 364.0
10.3268 382.0
10.3793 369.0
10.4318 322.0
10.4843 364.0
10.5368 361.0
10.5894 380.0
10.6419 341.0
10.6944 369.0
10.7469 349.0
10.7994 351.0
10.852 367.0
10.9045 373.0
10.957 382.0
11.0095 383.0
11.0621 362.0
11.1146 355.0
11.1671 361.0
11.2196 365.0
11.2721 348.0
11.3247 347.0
11.3772 332.0
11.4297 341.0
11.4822 334.0
11.5347 317.0
11.5873 334.0
11.6398 313.0
11.6923 329.0
11.7448 344.0
11.7973 347.0
11.8499 314.0
11.9024 314.0
11.9549 324.0
12.0074 330.0
12.06 321.0
12.1125 314.0
12.165 357.0
12.2175 354.0
12.27 344.0
12.3226 342.0
12.3751 298.0
12.4276 345.0
12.4801 340.0
12.5326 362.0
12.5852 338.0
12.6377 343.0
12.6902 321.0
12.7427 321.0
12.7953 366.0
12.8478 338.0
12.9003 322.0
12.9528 336.0
13.0053 332.0
13.0579 331.0
13.1104 330.0
13.1629 314.0
13.2154 281.0
13.2679 293.0
13.3205 320.0
13.373 258.0
13.4255 307.0
13.478 269.0
13.5305 295.0
13.5831 303.0
13.6356 244.0
13.6881 291.0
13.7406 269.0
13.7932 290.0
13.8457 290.0
13.8982 273.0
13.9507 288.0
14.0032 292.0
14.0558 284.0
14.1083 268.0
14.1608 303.0
14.2133 303.0
14.2658 301.0
14.3184 269.0
14.3709 290.0
14.4234 281.0
14.4759 286.0
14.5284 280.0
14.581 313.0
14.6335 327.0
14.686 333.0
14.7385 341.0
14.7911 275.0
14.8436 355.0
14.8961 390.0
14.9486 396.0
15.0011 426.0
15.0537 446.0
15.1062 522.0
15.1587 541.0
15.2112 570.0
15.2637 560.0
15.3163 595.0
15.3688 601.0
15.4213 590.0
15.4738 603.0
15.5263 567.0
15.5789 575.0
15.6314 600.0
15.6839 549.0
15.7364 566.0
15.789 496.0
15.8415 505.0
15.894 424.0
15.9465 368.0
15.999 312.0
16.0516 306.0
16.1041 264.0
16.1566 271.0
16.2091 258.0
16.2616 280.0
16.3142 247.0
16.3667 277.0
16.4192 276.0
16.4717 251.0
16.5243 266.0
16.5768 263.0
16.6293 245.0
16.6818 265.0
16.7343 261.0
16.7869 299.0
16.8394 245.0
16.8919 274.0
16.9444 261.0
16.9969 256.0
17.0495 263.0
17.102 309.0
17.1545 306.0
17.207 256.0
17.2595 243.0
17.3121 294.0
17.3646 266.0
17.4171 265.0
17.4696 279.0
17.5222 285.0
17.5747 273.0
17.6272 254.0
17.6797 273.0
17.7322 292.0
17.7848 275.0
17.8373 298.0
17.8898 284.0
17.9423 231.0
17.9948 293.0
18.0474 292.0
18.0999 275.0
18.1524 283.0
18.2049 279.0
18.2574 285.0
18.31 270.0
18.3625 263.0
18.415 258.0
18.4675 279.0
18.5201 283.0
18.5726 291.0
18.6251 286.0
18.6776 309.0
18.7301 293.0
18.7827 277.0
18.8352 249.0
18.8877 280.0
18.9402 295.0
18.9927 254.0
19.0453 276.0
19.0978 278.0
19.1503 267.0
19.2028 271.0
19.2553 298.0
19.3079 320.0
19.3604 299.0
19.4129 278.0
19.4654 276.0
19.518 271.0
19.5705 291.0
19.623 331.0
19.6755 314.0
19.728 309.0
19.7806 313.0
19.8331 313.0
19.8856 321.0
19.9381 307.0
19.9906 306.0
20.0432 278.0
20.0957 282.0
20.1482 276.0
20.2007 313.0
20.2533 335.0
20.3058 284.0
20.3583 302.0
20.4108 316.0
20.4633 322.0
20.5159 311.0
20.5684 324.0
20.6209 334.0
20.6734 298.0
20.7259 321.0
20.7785 336.0
20.831 328.0
20.8835 376.0
20.936 365.0
20.9885 370.0
21.0411 410.0
21.0936 473.0
21.1461 537.0
21.1986 575.0
21.2512 627.0
21.3037 643.0
21.3562 737.0
21.4087 751.0
21.4612 817.0
21.5138 850.0
21.5663 874.0
21.6188 919.0
21.6713 999.0
21.7238 982.0
21.7764 1010.0
21.8289 982.0
21.8814 1012.0
21.9339 1014.0
21.9864 967.0
22.039 976.0
22.0915 999.0
22.144 1050.0
22.1965 919.0
22.2491 948.0
22.3016 916.0
22.3541 932.0
22.4066 829.0
22.4591 785.0
22.5117 696.0
22.5642 611.0
22.6167 481.0
22.6692 421.0
22.7217 371.0
22.7743 376.0
22.8268 338.0
22.8793 295.0
22.9318 272.0
22.9843 283.0
23.0369 275.0
23.0894 301.0
23.1419 311.0
23.1944 278.0
23.247 257.0
23.2995 276.0
23.352 295.0
23.4045 276.0
23.457 253.0
23.5096 294.0
23.5621 241.0
23.6146 291.0
23.6671 258.0
23.7196 259.0
23.7722 301.0
23.8247 250.0
23.8772 259.0
23.9297 267.0
23.9823 261.0
24.0348 258.0
24.0873 289.0
24.1398 284.0
24.1923 279.0
24.2449 242.0
24.2974 242.0
24.3499 249.0
24.4024 233.0
24.4549 269.0
24.5075 239.0
24.56 255.0
24.6125 257.0
24.665 244.0
24.7175 260.0
24.7701 236.0
24.8226 246.0
24.8751 239.0
24.9276 242.0
24.9802 234.0
25.0327 266.0
25.0852 270.0
25.1377 251.0
25.1902 262.0
25.2428 214.0
25.2953 230.0
25.3478 253.0
25.4003 242.0
25.4528 220.0
25.5054 205.0
25.5579 217.0
25.6104 238.0
25.6629 258.0
25.7154 246.0
25.768 219.0
25.8205 227.0
25.873 243.0
25.9255 215.0
25.9781 205.0
26.0306 236.0
26.0831 219.0
26.1356 212.0
26.1881 225.0
26.2407 238.0
26.2932 195.0
26.3457 238.0
26.3982 209.0
26.4507 240.0
26.5033 220.0
26.5558 206.0
26.6083 193.0
26.6608 193.0
26.7133 191.0
26.7659 210.0
26.8184 195.0
26.8709 193.0
26.9234 207.0
26.976 216.0
27.0285 193.0
27.081 217.0
27.1335 236.0
27.186 192.0
27.2386 185.0
27.2911 202.0
27.3436 163.0
27.3961 228.0
27.4486 196.0
27.5012 201.0
27.5537 200.0
27.6062 203.0
27.6587 204.0
27.7113 188.0
27.7638 201.0
27.8163 191.0
27.8688 176.0
27.9213 196.0
27.9739 178.0
28.0264 201.0
28.0789 216.0
28.1314 205.0
28.1839 187.0
28.2365 197.0
28.289 199.0
28.3415 182.0
28.394 188.0
28.4465 208.0
28.4991 182.0
28.5516 195.0
28.6041 168.0
28.6566 201.0
28.7092 172.0
28.7617 202.0
28.8142 208.0
28.8667 224.0
28.9192 202.0
28.9718 182.0
29.0243 178.0
29.0768 188.0
29.1293 190.0
29.1818 191.0
29.2344 211.0
29.2869 208.0
29.3394 188.0
29.3919 208.0
29.4444 185.0
29.497 207.0
29.5495 201.0
29.602 196.0
29.6545 208.0
29.7071 205.0
29.7596 199.0
29.8121 193.0
29.8646 219.0
29.9171 216.0
29.9697 219.0
30.0222 211.0
30.0747 232.0
30.1272 270.0
30.1797 314.0
30.2323 279.0
30.2848 306.0
30.3373 349.0
30.3898 348.0
30.4424 379.0
30.4949 407.0
30.5474 400.0
30.5999 455.0
30.6524 483.0
30.705 490.0
30.7575 508.0
30.81 523.0
30.8625 503.0
30.915 509.0
30.9676 485.0
31.0201 492.0
31.0726 524.0
31.1251 515.0
31.1776 500.0
31.2302 559.0
31.2827 579.0
31.3352 541.0
31.3877 554.0
31.4403 544.0
31.4928 563.0
31.5453 545.0
31.5978 537.0
31.6503 546.0
31.7029 483.0
31.7554 486.0
31.8079 489.0
31.8604 482.0
31.9129 450.0
31.9655 433.0
32.018 447.0
32.0705 395.0
32.123 373.0
32.1755 292.0
32.2281 239.0
32.2806 202.0
32.3331 185.0
32.3856 149.0
32.4382 142.0
32.4907 168.0
32.5432 149.0
32.5957 155.0
32.6482 151.0
32.7008 156.0
32.7533 128.0
32.8058 140.0
32.8583 124.0
32.9108 133.0
32.9634 152.0
33.0159 170.0
33.0684 128.0
33.1209 142.0
33.1734 133.0
33.226 141.0
33.2785 147.0
33.331 136.0
33.3835 169.0
33.4361 161.0
33.4886 143.0
33.5411 148.0
33.5936 155.0
33.6461 143.0
33.6987 142.0
33.7512 147.0
33.8037 163.0
33.8562 179.0
33.9087 176.0
33.9613 149.0
34.0138 169.0
34.0663 166.0
34.1188 166.0
34.1714 182.0
34.2239 165.0
34.2764 190.0
34.3289 188.0
34.3814 205.0
34.434 192.0
34.4865 205.0
34.539 211.0
34.5915 208.0
34.644 204.0
34.6966 218.0
34.7491 186.0
34.8016 223.0
34.8541 200.0
34.9066 181.0
34.9592 191.0
35.0117 193.0
35.0642 182.0
35.1167 200.0
35.1693 200.0
35.2218 189.0
35.2743 209.0
35.3268 204.0
35.3793 207.0
35.4319 199.0
35.4844 195.0
35.5369 191.0
35.5894 177.0
35.6419 220.0
35.6945 196.0
35.747 198.0
35.7995 183.0
35.852 162.0
35.9045 158.0
35.9571 177.0
36.0096 160.0
36.0621 162.0
36.1146 131.0
36.1672 129.0
36.2197 132.0
36.2722 117.0
36.3247 120.0
36.3772 111.0
36.4298 118.0
36.4823 105.0
36.5348 130.0
36.5873 134.0
36.6398 136.0
36.6924 127.0
36.7449 126.0
36.7974 129.0
36.8499 127.0
36.9024 146.0
36.955 128.0
37.0075 139.0
37.06 153.0
37.1125 147.0
37.1651 148.0
37.2176 163.0
37.2701 187.0
37.3226 175.0
37.3751 215.0
37.4277 190.0
37.4802 185.0
37.5327 225.0
37.5852 205.0
37.6377 196.0
37.6903 216.0
37.7428 263.0
37.7953 238.0
37.8478 252.0
37.9004 230.0
37.9529 294.0
38.0054 249.0
38.0579 270.0
38.1104 290.0
38.163 308.0
38.2155 256.0
38.268 291.0
38.3205 300.0
38.373 303.0
38.4256 318.0
38.4781 308.0
38.5306 280.0
38.5831 270.0
38.6356 293.0
38.6882 288.0
38.7407 290.0
38.7932 305.0
38.8457 275.0
38.8983 310.0
38.9508 295.0
39.0033 264.0
39.0558 297.0
39.1083 264.0
39.1609 279.0
39.2134 261.0
39.2659 258.0
39.3184 248.0
39.3709 230.0
39.4235 223.0
39.476 221.0
39.5285 184.0
39.581 204.0
39.6335 159.0
39.6861 142.0
39.7386 151.0
39.7911 120.0
39.8436 112.0
39.8962 119.0
39.9487 127.0
40.0012 101.0
40.0537 128.0
40.1062 110.0
40.1588 114.0
40.2113 99.0
40.2638 108.0
40.3163 110.0
40.3688 108.0
40.4214 106.0
40.4739 105.0
40.5264 110.0
40.5789 101.0
40.6314 105.0
40.684 99.0
40.7365 121.0
40.789 90.0
40.8415 100.0
40.8941 113.0
40.9466 85.0
40.9991 118.0
41.0516 96.0
41.1041 107.0
41.1567 116.0
41.2092 109.0
41.2617 122.0
41.3142 114.0
41.3667 101.0
41.4193 100.0
41.4718 98.0
41.5243 102.0
41.5768 102.0
41.6294 107.0
41.6819 105.0
41.7344 97.0
41.7869 104.0
41.8394 106.0
41.892 122.0
41.9445 92.0
41.997 87.0
42.0495 90.0
42.102 92.0
42.1546 106.0
42.2071 93.0
42.2596 133.0
42.3121 102.0
42.3646 104.0
42.4172 96.0
42.4697 94.0
42.5222 101.0
42.5747 116.0
42.6273 96.0
42.6798 109.0
42.7323 96.0
42.7848 96.0
42.8373 108.0
42.8899 105.0
42.9424 104.0
42.9949 106.0
43.0474 105.0
43.0999 116.0
43.1525 116.0
43.205 119.0
43.2575 110.0
43.31 109.0
43.3625 110.0
43.4151 131.0
43.4676 135.0
43.5201 154.0
43.5726 152.0
43.6252 164.0
43.6777 168.0
43.7302 167.0
43.7827 178.0
43.8352 175.0
43.8878 170.0
43.9403 158.0
43.9928 189.0
44.0453 147.0
44.0978 181.0
44.1504 190.0
44.2029 170.0
44.2554 205.0
44.3079 176.0
44.3604 174.0
44.413 168.0
44.4655 162.0
44.518 223.0
44.5705 194.0
44.6231 179.0
44.6756 183.0
44.7281 218.0
44.7806 206.0
44.8331 200.0
44.8857 201.0
44.9382 193.0
44.9907 206.0
45.0432 220.0
45.0957 187.0
45.1483 159.0
45.2008 199.0
45.2533 184.0
45.3058 206.0
45.3584 185.0
45.4109 192.0
45.4634 197.0
45.5159 186.0
45.5684 210.0
45.621 188.0
45.6735 169.0
45.726 169.0
45.7785 162.0
45.831 156.0
45.8836 139.0
45.9361 145.0
45.9886 137.0
46.0411 118.0
46.0936 145.0
46.1462 143.0
46.1987 110.0
46.2512 115.0
46.3037 118.0
46.3563 132.0
46.4088 131.0
46.4613 120.0
46.5138 119.0
46.5663 109.0
46.6189 120.0
46.6714 119.0
46.7239 127.0
46.7764 118.0
46.8289 106.0
46.8815 101.0
46.934 132.0
46.9865 111.0
47.039 131.0
47.0915 122.0
47.1441 122.0
47.1966 116.0
47.2491 117.0
47.3016 133.0
47.3542 113.0
47.4067 110.0
47.4592 118.0
47.5117 131.0
47.5642 96.0
47.6168 115.0
47.6693 108.0
47.7218 112.0
47.7743 132.0
47.8268 116.0
47.8794 123.0
47.9319 120.0
47.9844 134.0
48.0369 120.0
48.0895 123.0
48.142 120.0
48.1945 115.0
48.247 127.0
48.2995 120.0
48.3521 127.0
48.4046 92.0
48.4571 102.0
48.5096 131.0
48.5621 125.0
48.6147 112.0
48.6672 116.0
48.7197 117.0
48.7722 130.0
48.8247 118.0
48.8773 112.0
48.9298 106.0
48.9823 124.0
49.0348 123.0
49.0874 113.0
49.1399 105.0
49.1924 115.0
49.2449 134.0
49.2974 118.0
49.35 119.0
49.4025 121.0
49.455 132.0
49.5075 139.0
49.56 124.0
49.6126 113.0
49.6651 149.0
49.7176 142.0
49.7701 118.0
49.8226 152.0
49.8752 147.0
49.9277 134.0
49.9802 126.0
50.0065 131.0