File: Br-Cl_phases/XRD/original/220615_300s_GIXRD.xy
10.0116 367.0
10.0642 335.0
10.1167 357.0
10.1692 382.0
10.2217 394.0
10.2742 365.0
10.3268 359.0
10.3793 347.0
10.4318 389.0
10.4843 397.0
10.5368 359.0
10.5894 345.0
10.6419 394.0
10.6944 368.0
10.7469 342.0
10.7994 387.0
10.852 363.0
10.9045 367.0
10.957 317.0
11.0095 372.0
11.0621 348.0
11.1146 317.0
11.1671 354.0
11.2196 365.0
11.2721 349.0
11.3247 340.0
11.3772 354.0
11.4297 335.0
11.4822 362.0
11.5347 337.0
11.5873 347.0
11.6398 320.0
11.6923 369.0
11.7448 323.0
11.7973 327.0
11.8499 324.0
11.9024 339.0
11.9549 321.0
12.0074 337.0
12.06 329.0
12.1125 352.0
12.165 357.0
12.2175 354.0
12.27 347.0
12.3226 314.0
12.3751 370.0
12.4276 339.0
12.4801 339.0
12.5326 325.0
12.5852 327.0
12.6377 332.0
12.6902 346.0
12.7427 346.0
12.7953 347.0
12.8478 327.0
12.9003 328.0
12.9528 327.0
13.0053 359.0
13.0579 333.0
13.1104 333.0
13.1629 318.0
13.2154 315.0
13.2679 306.0
13.3205 304.0
13.373 299.0
13.4255 314.0
13.478 335.0
13.5305 282.0
13.5831 306.0
13.6356 295.0
13.6881 296.0
13.7406 304.0
13.7932 316.0
13.8457 284.0
13.8982 314.0
13.9507 305.0
14.0032 306.0
14.0558 259.0
14.1083 263.0
14.1608 273.0
14.2133 308.0
14.2658 294.0
14.3184 301.0
14.3709 282.0
14.4234 296.0
14.4759 305.0
14.5284 318.0
14.581 307.0
14.6335 297.0
14.686 339.0
14.7385 359.0
14.7911 311.0
14.8436 344.0
14.8961 399.0
14.9486 429.0
15.0011 467.0
15.0537 521.0
15.1062 533.0
15.1587 586.0
15.2112 613.0
15.2637 661.0
15.3163 706.0
15.3688 712.0
15.4213 679.0
15.4738 739.0
15.5263 716.0
15.5789 732.0
15.6314 755.0
15.6839 697.0
15.7364 694.0
15.789 654.0
15.8415 697.0
15.894 597.0
15.9465 549.0
15.999 525.0
16.0516 406.0
16.1041 359.0
16.1566 301.0
16.2091 317.0
16.2616 235.0
16.3142 299.0
16.3667 301.0
16.4192 309.0
16.4717 279.0
16.5243 266.0
16.5768 265.0
16.6293 238.0
16.6818 278.0
16.7343 289.0
16.7869 267.0
16.8394 245.0
16.8919 266.0
16.9444 270.0
16.9969 277.0
17.0495 261.0
17.102 291.0
17.1545 283.0
17.207 250.0
17.2595 275.0
17.3121 281.0
17.3646 218.0
17.4171 249.0
17.4696 271.0
17.5222 262.0
17.5747 262.0
17.6272 268.0
17.6797 274.0
17.7322 262.0
17.7848 259.0
17.8373 249.0
17.8898 232.0
17.9423 286.0
17.9948 291.0
18.0474 299.0
18.0999 261.0
18.1524 282.0
18.2049 289.0
18.2574 278.0
18.31 256.0
18.3625 263.0
18.415 250.0
18.4675 280.0
18.5201 298.0
18.5726 311.0
18.6251 302.0
18.6776 278.0
18.7301 297.0
18.7827 308.0
18.8352 251.0
18.8877 294.0
18.9402 273.0
18.9927 282.0
19.0453 297.0
19.0978 279.0
19.1503 280.0
19.2028 271.0
19.2553 312.0
19.3079 307.0
19.3604 320.0
19.4129 328.0
19.4654 272.0
19.518 284.0
19.5705 290.0
19.623 287.0
19.6755 288.0
19.728 310.0
19.7806 290.0
19.8331 319.0
19.8856 287.0
19.9381 299.0
19.9906 298.0
20.0432 325.0
20.0957 319.0
20.1482 338.0
20.2007 301.0
20.2533 310.0
20.3058 312.0
20.3583 301.0
20.4108 306.0
20.4633 312.0
20.5159 302.0
20.5684 301.0
20.6209 300.0
20.6734 315.0
20.7259 322.0
20.7785 317.0
20.831 337.0
20.8835 314.0
20.936 335.0
20.9885 359.0
21.0411 349.0
21.0936 335.0
21.1461 331.0
21.1986 400.0
21.2512 446.0
21.3037 423.0
21.3562 449.0
21.4087 418.0
21.4612 486.0
21.5138 547.0
21.5663 504.0
21.6188 557.0
21.6713 603.0
21.7238 563.0
21.7764 613.0
21.8289 624.0
21.8814 597.0
21.9339 597.0
21.9864 631.0
22.039 654.0
22.0915 648.0
22.144 667.0
22.1965 649.0
22.2491 625.0
22.3016 592.0
22.3541 610.0
22.4066 633.0
22.4591 550.0
22.5117 584.0
22.5642 552.0
22.6167 497.0
22.6692 469.0
22.7217 447.0
22.7743 372.0
22.8268 314.0
22.8793 297.0
22.9318 291.0
22.9843 284.0
23.0369 293.0
23.0894 247.0
23.1419 255.0
23.1944 291.0
23.247 283.0
23.2995 274.0
23.352 240.0
23.4045 275.0
23.457 241.0
23.5096 261.0
23.5621 275.0
23.6146 261.0
23.6671 266.0
23.7196 271.0
23.7722 250.0
23.8247 264.0
23.8772 231.0
23.9297 220.0
23.9823 265.0
24.0348 223.0
24.0873 257.0
24.1398 259.0
24.1923 251.0
24.2449 245.0
24.2974 229.0
24.3499 231.0
24.4024 256.0
24.4549 249.0
24.5075 230.0
24.56 238.0
24.6125 256.0
24.665 250.0
24.7175 255.0
24.7701 229.0
24.8226 244.0
24.8751 243.0
24.9276 244.0
24.9802 255.0
25.0327 227.0
25.0852 263.0
25.1377 264.0
25.1902 238.0
25.2428 266.0
25.2953 254.0
25.3478 247.0
25.4003 219.0
25.4528 223.0
25.5054 266.0
25.5579 226.0
25.6104 215.0
25.6629 238.0
25.7154 210.0
25.768 185.0
25.8205 228.0
25.873 223.0
25.9255 203.0
25.9781 206.0
26.0306 199.0
26.0831 195.0
26.1356 194.0
26.1881 201.0
26.2407 210.0
26.2932 221.0
26.3457 199.0
26.3982 186.0
26.4507 207.0
26.5033 232.0
26.5558 191.0
26.6083 200.0
26.6608 201.0
26.7133 221.0
26.7659 204.0
26.8184 193.0
26.8709 181.0
26.9234 162.0
26.976 178.0
27.0285 205.0
27.081 196.0
27.1335 172.0
27.186 209.0
27.2386 200.0
27.2911 188.0
27.3436 188.0
27.3961 191.0
27.4486 172.0
27.5012 167.0
27.5537 190.0
27.6062 185.0
27.6587 159.0
27.7113 208.0
27.7638 197.0
27.8163 198.0
27.8688 199.0
27.9213 182.0
27.9739 185.0
28.0264 192.0
28.0789 211.0
28.1314 165.0
28.1839 186.0
28.2365 207.0
28.289 199.0
28.3415 192.0
28.394 212.0
28.4465 160.0
28.4991 188.0
28.5516 182.0
28.6041 192.0
28.6566 189.0
28.7092 185.0
28.7617 168.0
28.8142 179.0
28.8667 181.0
28.9192 195.0
28.9718 194.0
29.0243 182.0
29.0768 195.0
29.1293 194.0
29.1818 175.0
29.2344 205.0
29.2869 161.0
29.3394 200.0
29.3919 192.0
29.4444 191.0
29.497 180.0
29.5495 202.0
29.602 188.0
29.6545 185.0
29.7071 208.0
29.7596 192.0
29.8121 195.0
29.8646 212.0
29.9171 189.0
29.9697 222.0
30.0222 231.0
30.0747 271.0
30.1272 230.0
30.1797 308.0
30.2323 352.0
30.2848 353.0
30.3373 359.0
30.3898 390.0
30.4424 404.0
30.4949 446.0
30.5474 477.0
30.5999 522.0
30.6524 523.0
30.705 571.0
30.7575 655.0
30.81 637.0
30.8625 709.0
30.915 728.0
30.9676 686.0
31.0201 736.0
31.0726 752.0
31.1251 760.0
31.1776 740.0
31.2302 782.0
31.2827 837.0
31.3352 728.0
31.3877 779.0
31.4403 763.0
31.4928 758.0
31.5453 765.0
31.5978 809.0
31.6503 778.0
31.7029 828.0
31.7554 791.0
31.8079 704.0
31.8604 773.0
31.9129 736.0
31.9655 727.0
32.018 734.0
32.0705 655.0
32.123 665.0
32.1755 629.0
32.2281 585.0
32.2806 503.0
32.3331 436.0
32.3856 354.0
32.4382 261.0
32.4907 262.0
32.5432 231.0
32.5957 197.0
32.6482 159.0
32.7008 169.0
32.7533 143.0
32.8058 136.0
32.8583 163.0
32.9108 139.0
32.9634 163.0
33.0159 160.0
33.0684 147.0
33.1209 176.0
33.1734 169.0
33.226 158.0
33.2785 168.0
33.331 132.0
33.3835 156.0
33.4361 136.0
33.4886 146.0
33.5411 122.0
33.5936 141.0
33.6461 145.0
33.6987 166.0
33.7512 158.0
33.8037 169.0
33.8562 129.0
33.9087 154.0
33.9613 158.0
34.0138 146.0
34.0663 179.0
34.1188 175.0
34.1714 157.0
34.2239 155.0
34.2764 173.0
34.3289 162.0
34.3814 191.0
34.434 201.0
34.4865 184.0
34.539 192.0
34.5915 183.0
34.644 175.0
34.6966 219.0
34.7491 195.0
34.8016 192.0
34.8541 206.0
34.9066 183.0
34.9592 202.0
35.0117 220.0
35.0642 179.0
35.1167 192.0
35.1693 193.0
35.2218 195.0
35.2743 195.0
35.3268 213.0
35.3793 212.0
35.4319 189.0
35.4844 218.0
35.5369 212.0
35.5894 190.0
35.6419 203.0
35.6945 189.0
35.747 180.0
35.7995 182.0
35.852 167.0
35.9045 204.0
35.9571 174.0
36.0096 175.0
36.0621 204.0
36.1146 168.0
36.1672 159.0
36.2197 152.0
36.2722 133.0
36.3247 122.0
36.3772 122.0
36.4298 139.0
36.4823 148.0
36.5348 131.0
36.5873 114.0
36.6398 141.0
36.6924 113.0
36.7449 134.0
36.7974 108.0
36.8499 129.0
36.9024 128.0
36.955 121.0
37.0075 113.0
37.06 138.0
37.1125 133.0
37.1651 112.0
37.2176 140.0
37.2701 140.0
37.3226 145.0
37.3751 181.0
37.4277 166.0
37.4802 164.0
37.5327 170.0
37.5852 178.0
37.6377 188.0
37.6903 190.0
37.7428 188.0
37.7953 205.0
37.8478 209.0
37.9004 205.0
37.9529 230.0
38.0054 240.0
38.0579 221.0
38.1104 234.0
38.163 236.0
38.2155 279.0
38.268 283.0
38.3205 270.0
38.373 239.0
38.4256 263.0
38.4781 248.0
38.5306 264.0
38.5831 278.0
38.6356 281.0
38.6882 246.0
38.7407 263.0
38.7932 287.0
38.8457 246.0
38.8983 239.0
38.9508 257.0
39.0033 250.0
39.0558 300.0
39.1083 242.0
39.1609 268.0
39.2134 233.0
39.2659 262.0
39.3184 279.0
39.3709 264.0
39.4235 246.0
39.476 230.0
39.5285 222.0
39.581 194.0
39.6335 200.0
39.6861 177.0
39.7386 191.0
39.7911 192.0
39.8436 165.0
39.8962 144.0
39.9487 136.0
40.0012 134.0
40.0537 109.0
40.1062 119.0
40.1588 117.0
40.2113 108.0
40.2638 101.0
40.3163 114.0
40.3688 89.0
40.4214 123.0
40.4739 115.0
40.5264 97.0
40.5789 120.0
40.6314 100.0
40.684 101.0
40.7365 104.0
40.789 88.0
40.8415 92.0
40.8941 112.0
40.9466 83.0
40.9991 92.0
41.0516 89.0
41.1041 117.0
41.1567 93.0
41.2092 112.0
41.2617 116.0
41.3142 100.0
41.3667 89.0
41.4193 98.0
41.4718 84.0
41.5243 110.0
41.5768 121.0
41.6294 83.0
41.6819 102.0
41.7344 112.0
41.7869 93.0
41.8394 100.0
41.892 109.0
41.9445 93.0
41.997 77.0
42.0495 85.0
42.102 125.0
42.1546 76.0
42.2071 97.0
42.2596 92.0
42.3121 113.0
42.3646 92.0
42.4172 104.0
42.4697 99.0
42.5222 91.0
42.5747 105.0
42.6273 91.0
42.6798 84.0
42.7323 102.0
42.7848 87.0
42.8373 116.0
42.8899 87.0
42.9424 95.0
42.9949 101.0
43.0474 108.0
43.0999 99.0
43.1525 89.0
43.205 105.0
43.2575 92.0
43.31 108.0
43.3625 105.0
43.4151 118.0
43.4676 126.0
43.5201 119.0
43.5726 125.0
43.6252 108.0
43.6777 124.0
43.7302 148.0
43.7827 123.0
43.8352 120.0
43.8878 129.0
43.9403 141.0
43.9928 139.0
44.0453 139.0
44.0978 155.0
44.1504 179.0
44.2029 152.0
44.2554 185.0
44.3079 154.0
44.3604 156.0
44.413 164.0
44.4655 156.0
44.518 125.0
44.5705 150.0
44.6231 155.0
44.6756 175.0
44.7281 176.0
44.7806 161.0
44.8331 183.0
44.8857 159.0
44.9382 192.0
44.9907 179.0
45.0432 182.0
45.0957 183.0
45.1483 165.0
45.2008 197.0
45.2533 184.0
45.3058 186.0
45.3584 161.0
45.4109 173.0
45.4634 173.0
45.5159 168.0
45.5684 179.0
45.621 186.0
45.6735 169.0
45.726 148.0
45.7785 188.0
45.831 158.0
45.8836 144.0
45.9361 149.0
45.9886 157.0
46.0411 152.0
46.0936 158.0
46.1462 158.0
46.1987 145.0
46.2512 135.0
46.3037 145.0
46.3563 127.0
46.4088 123.0
46.4613 106.0
46.5138 96.0
46.5663 124.0
46.6189 106.0
46.6714 110.0
46.7239 85.0
46.7764 108.0
46.8289 121.0
46.8815 121.0
46.934 93.0
46.9865 104.0
47.039 117.0
47.0915 126.0
47.1441 117.0
47.1966 120.0
47.2491 137.0
47.3016 138.0
47.3542 99.0
47.4067 112.0
47.4592 119.0
47.5117 116.0
47.5642 131.0
47.6168 121.0
47.6693 101.0
47.7218 121.0
47.7743 118.0
47.8268 119.0
47.8794 128.0
47.9319 106.0
47.9844 129.0
48.0369 112.0
48.0895 137.0
48.142 96.0
48.1945 99.0
48.247 124.0
48.2995 106.0
48.3521 118.0
48.4046 123.0
48.4571 110.0
48.5096 113.0
48.5621 100.0
48.6147 99.0
48.6672 126.0
48.7197 131.0
48.7722 99.0
48.8247 119.0
48.8773 112.0
48.9298 104.0
48.9823 101.0
49.0348 127.0
49.0874 124.0
49.1399 114.0
49.1924 116.0
49.2449 126.0
49.2974 119.0
49.35 110.0
49.4025 134.0
49.455 114.0
49.5075 126.0
49.56 123.0
49.6126 137.0
49.6651 133.0
49.7176 119.0
49.7701 122.0
49.8226 114.0
49.8752 144.0
49.9277 148.0
49.9802 144.0
50.0065 115.0