File: Br-Cl_phases/XRD/original/220615_25s_GIXRD.xy
10.0116 382.0
10.0642 339.0
10.1167 355.0
10.1692 373.0
10.2217 355.0
10.2742 402.0
10.3268 378.0
10.3793 375.0
10.4318 354.0
10.4843 355.0
10.5368 345.0
10.5894 351.0
10.6419 379.0
10.6944 365.0
10.7469 373.0
10.7994 349.0
10.852 342.0
10.9045 361.0
10.957 354.0
11.0095 331.0
11.0621 345.0
11.1146 345.0
11.1671 385.0
11.2196 350.0
11.2721 364.0
11.3247 344.0
11.3772 342.0
11.4297 342.0
11.4822 383.0
11.5347 353.0
11.5873 368.0
11.6398 323.0
11.6923 330.0
11.7448 345.0
11.7973 340.0
11.8499 335.0
11.9024 328.0
11.9549 322.0
12.0074 313.0
12.06 376.0
12.1125 315.0
12.165 339.0
12.2175 342.0
12.27 303.0
12.3226 299.0
12.3751 344.0
12.4276 334.0
12.4801 309.0
12.5326 340.0
12.5852 350.0
12.6377 344.0
12.6902 315.0
12.7427 344.0
12.7953 344.0
12.8478 352.0
12.9003 333.0
12.9528 297.0
13.0053 336.0
13.0579 331.0
13.1104 324.0
13.1629 319.0
13.2154 295.0
13.2679 271.0
13.3205 302.0
13.373 307.0
13.4255 315.0
13.478 290.0
13.5305 298.0
13.5831 285.0
13.6356 290.0
13.6881 301.0
13.7406 317.0
13.7932 309.0
13.8457 299.0
13.8982 293.0
13.9507 282.0
14.0032 287.0
14.0558 287.0
14.1083 306.0
14.1608 261.0
14.2133 282.0
14.2658 323.0
14.3184 273.0
14.3709 298.0
14.4234 279.0
14.4759 275.0
14.5284 331.0
14.581 315.0
14.6335 337.0
14.686 356.0
14.7385 410.0
14.7911 433.0
14.8436 388.0
14.8961 478.0
14.9486 456.0
15.0011 555.0
15.0537 511.0
15.1062 509.0
15.1587 506.0
15.2112 553.0
15.2637 607.0
15.3163 519.0
15.3688 547.0
15.4213 516.0
15.4738 485.0
15.5263 516.0
15.5789 501.0
15.6314 527.0
15.6839 487.0
15.7364 479.0
15.789 407.0
15.8415 339.0
15.894 317.0
15.9465 277.0
15.999 275.0
16.0516 275.0
16.1041 256.0
16.1566 281.0
16.2091 252.0
16.2616 258.0
16.3142 233.0
16.3667 290.0
16.4192 300.0
16.4717 261.0
16.5243 235.0
16.5768 286.0
16.6293 279.0
16.6818 263.0
16.7343 275.0
16.7869 277.0
16.8394 285.0
16.8919 265.0
16.9444 271.0
16.9969 281.0
17.0495 266.0
17.102 285.0
17.1545 259.0
17.207 256.0
17.2595 264.0
17.3121 257.0
17.3646 296.0
17.4171 280.0
17.4696 273.0
17.5222 252.0
17.5747 255.0
17.6272 270.0
17.6797 276.0
17.7322 258.0
17.7848 279.0
17.8373 272.0
17.8898 259.0
17.9423 252.0
17.9948 284.0
18.0474 241.0
18.0999 268.0
18.1524 308.0
18.2049 254.0
18.2574 257.0
18.31 261.0
18.3625 253.0
18.415 328.0
18.4675 279.0
18.5201 265.0
18.5726 303.0
18.6251 270.0
18.6776 299.0
18.7301 269.0
18.7827 277.0
18.8352 294.0
18.8877 281.0
18.9402 280.0
18.9927 284.0
19.0453 273.0
19.0978 305.0
19.1503 281.0
19.2028 323.0
19.2553 300.0
19.3079 243.0
19.3604 295.0
19.4129 257.0
19.4654 318.0
19.518 300.0
19.5705 290.0
19.623 305.0
19.6755 312.0
19.728 303.0
19.7806 279.0
19.8331 303.0
19.8856 299.0
19.9381 316.0
19.9906 286.0
20.0432 317.0
20.0957 323.0
20.1482 306.0
20.2007 286.0
20.2533 287.0
20.3058 302.0
20.3583 287.0
20.4108 309.0
20.4633 290.0
20.5159 307.0
20.5684 301.0
20.6209 309.0
20.6734 294.0
20.7259 330.0
20.7785 334.0
20.831 342.0
20.8835 369.0
20.936 408.0
20.9885 413.0
21.0411 427.0
21.0936 531.0
21.1461 574.0
21.1986 638.0
21.2512 638.0
21.3037 651.0
21.3562 766.0
21.4087 733.0
21.4612 748.0
21.5138 733.0
21.5663 670.0
21.6188 764.0
21.6713 769.0
21.7238 715.0
21.7764 794.0
21.8289 754.0
21.8814 792.0
21.9339 772.0
21.9864 752.0
22.039 744.0
22.0915 737.0
22.144 734.0
22.1965 682.0
22.2491 678.0
22.3016 618.0
22.3541 612.0
22.4066 539.0
22.4591 441.0
22.5117 417.0
22.5642 313.0
22.6167 321.0
22.6692 324.0
22.7217 279.0
22.7743 319.0
22.8268 301.0
22.8793 303.0
22.9318 309.0
22.9843 278.0
23.0369 286.0
23.0894 280.0
23.1419 285.0
23.1944 265.0
23.247 256.0
23.2995 268.0
23.352 265.0
23.4045 273.0
23.457 277.0
23.5096 250.0
23.5621 266.0
23.6146 261.0
23.6671 239.0
23.7196 277.0
23.7722 282.0
23.8247 278.0
23.8772 255.0
23.9297 272.0
23.9823 262.0
24.0348 282.0
24.0873 275.0
24.1398 266.0
24.1923 287.0
24.2449 266.0
24.2974 272.0
24.3499 244.0
24.4024 254.0
24.4549 281.0
24.5075 269.0
24.56 260.0
24.6125 284.0
24.665 256.0
24.7175 254.0
24.7701 252.0
24.8226 287.0
24.8751 249.0
24.9276 250.0
24.9802 287.0
25.0327 251.0
25.0852 266.0
25.1377 253.0
25.1902 273.0
25.2428 248.0
25.2953 229.0
25.3478 236.0
25.4003 230.0
25.4528 243.0
25.5054 232.0
25.5579 241.0
25.6104 213.0
25.6629 223.0
25.7154 227.0
25.768 247.0
25.8205 258.0
25.873 243.0
25.9255 223.0
25.9781 229.0
26.0306 236.0
26.0831 229.0
26.1356 224.0
26.1881 226.0
26.2407 225.0
26.2932 241.0
26.3457 230.0
26.3982 231.0
26.4507 218.0
26.5033 198.0
26.5558 237.0
26.6083 230.0
26.6608 225.0
26.7133 217.0
26.7659 213.0
26.8184 227.0
26.8709 215.0
26.9234 221.0
26.976 216.0
27.0285 193.0
27.081 204.0
27.1335 209.0
27.186 205.0
27.2386 195.0
27.2911 196.0
27.3436 180.0
27.3961 214.0
27.4486 209.0
27.5012 185.0
27.5537 206.0
27.6062 192.0
27.6587 190.0
27.7113 196.0
27.7638 205.0
27.8163 220.0
27.8688 155.0
27.9213 192.0
27.9739 210.0
28.0264 189.0
28.0789 201.0
28.1314 208.0
28.1839 210.0
28.2365 222.0
28.289 172.0
28.3415 215.0
28.394 201.0
28.4465 206.0
28.4991 214.0
28.5516 192.0
28.6041 189.0
28.6566 205.0
28.7092 190.0
28.7617 192.0
28.8142 201.0
28.8667 182.0
28.9192 198.0
28.9718 204.0
29.0243 179.0
29.0768 204.0
29.1293 179.0
29.1818 225.0
29.2344 192.0
29.2869 187.0
29.3394 206.0
29.3919 208.0
29.4444 213.0
29.497 214.0
29.5495 235.0
29.602 211.0
29.6545 244.0
29.7071 276.0
29.7596 290.0
29.8121 274.0
29.8646 305.0
29.9171 298.0
29.9697 328.0
30.0222 359.0
30.0747 417.0
30.1272 415.0
30.1797 476.0
30.2323 452.0
30.2848 475.0
30.3373 506.0
30.3898 540.0
30.4424 552.0
30.4949 547.0
30.5474 577.0
30.5999 578.0
30.6524 563.0
30.705 568.0
30.7575 605.0
30.81 588.0
30.8625 577.0
30.915 569.0
30.9676 580.0
31.0201 549.0
31.0726 616.0
31.1251 553.0
31.1776 566.0
31.2302 574.0
31.2827 555.0
31.3352 539.0
31.3877 611.0
31.4403 570.0
31.4928 540.0
31.5453 520.0
31.5978 528.0
31.6503 480.0
31.7029 442.0
31.7554 455.0
31.8079 428.0
31.8604 394.0
31.9129 360.0
31.9655 328.0
32.018 247.0
32.0705 229.0
32.123 193.0
32.1755 191.0
32.2281 170.0
32.2806 140.0
32.3331 163.0
32.3856 157.0
32.4382 145.0
32.4907 161.0
32.5432 142.0
32.5957 127.0
32.6482 151.0
32.7008 132.0
32.7533 136.0
32.8058 141.0
32.8583 139.0
32.9108 133.0
32.9634 149.0
33.0159 127.0
33.0684 132.0
33.1209 122.0
33.1734 167.0
33.226 134.0
33.2785 125.0
33.331 142.0
33.3835 146.0
33.4361 157.0
33.4886 144.0
33.5411 161.0
33.5936 154.0
33.6461 166.0
33.6987 175.0
33.7512 204.0
33.8037 165.0
33.8562 215.0
33.9087 172.0
33.9613 198.0
34.0138 184.0
34.0663 198.0
34.1188 198.0
34.1714 223.0
34.2239 186.0
34.2764 210.0
34.3289 185.0
34.3814 214.0
34.434 226.0
34.4865 208.0
34.539 211.0
34.5915 221.0
34.644 215.0
34.6966 209.0
34.7491 212.0
34.8016 206.0
34.8541 191.0
34.9066 194.0
34.9592 236.0
35.0117 193.0
35.0642 208.0
35.1167 221.0
35.1693 206.0
35.2218 218.0
35.2743 171.0
35.3268 183.0
35.3793 198.0
35.4319 189.0
35.4844 204.0
35.5369 165.0
35.5894 183.0
35.6419 168.0
35.6945 165.0
35.747 176.0
35.7995 154.0
35.852 131.0
35.9045 148.0
35.9571 126.0
36.0096 148.0
36.0621 152.0
36.1146 129.0
36.1672 122.0
36.2197 119.0
36.2722 144.0
36.3247 127.0
36.3772 124.0
36.4298 145.0
36.4823 114.0
36.5348 127.0
36.5873 167.0
36.6398 133.0
36.6924 136.0
36.7449 137.0
36.7974 123.0
36.8499 143.0
36.9024 177.0
36.955 183.0
37.0075 193.0
37.06 181.0
37.1125 215.0
37.1651 226.0
37.2176 223.0
37.2701 211.0
37.3226 253.0
37.3751 251.0
37.4277 273.0
37.4802 242.0
37.5327 240.0
37.5852 281.0
37.6377 271.0
37.6903 274.0
37.7428 267.0
37.7953 285.0
37.8478 268.0
37.9004 271.0
37.9529 276.0
38.0054 284.0
38.0579 330.0
38.1104 277.0
38.163 293.0
38.2155 298.0
38.268 294.0
38.3205 288.0
38.373 276.0
38.4256 253.0
38.4781 298.0
38.5306 328.0
38.5831 261.0
38.6356 280.0
38.6882 272.0
38.7407 246.0
38.7932 275.0
38.8457 251.0
38.8983 252.0
38.9508 245.0
39.0033 221.0
39.0558 210.0
39.1083 220.0
39.1609 225.0
39.2134 193.0
39.2659 173.0
39.3184 176.0
39.3709 172.0
39.4235 168.0
39.476 137.0
39.5285 128.0
39.581 103.0
39.6335 122.0
39.6861 130.0
39.7386 108.0
39.7911 115.0
39.8436 118.0
39.8962 111.0
39.9487 123.0
40.0012 102.0
40.0537 107.0
40.1062 110.0
40.1588 117.0
40.2113 113.0
40.2638 105.0
40.3163 123.0
40.3688 110.0
40.4214 108.0
40.4739 99.0
40.5264 105.0
40.5789 79.0
40.6314 97.0
40.684 110.0
40.7365 98.0
40.789 90.0
40.8415 95.0
40.8941 122.0
40.9466 85.0
40.9991 95.0
41.0516 88.0
41.1041 85.0
41.1567 101.0
41.2092 110.0
41.2617 111.0
41.3142 83.0
41.3667 97.0
41.4193 103.0
41.4718 96.0
41.5243 108.0
41.5768 96.0
41.6294 86.0
41.6819 94.0
41.7344 92.0
41.7869 105.0
41.8394 96.0
41.892 105.0
41.9445 88.0
41.997 110.0
42.0495 107.0
42.102 95.0
42.1546 119.0
42.2071 94.0
42.2596 95.0
42.3121 112.0
42.3646 99.0
42.4172 115.0
42.4697 94.0
42.5222 126.0
42.5747 87.0
42.6273 112.0
42.6798 123.0
42.7323 98.0
42.7848 125.0
42.8373 123.0
42.8899 118.0
42.9424 125.0
42.9949 147.0
43.0474 137.0
43.0999 151.0
43.1525 159.0
43.205 161.0
43.2575 175.0
43.31 137.0
43.3625 157.0
43.4151 167.0
43.4676 186.0
43.5201 180.0
43.5726 187.0
43.6252 201.0
43.6777 177.0
43.7302 176.0
43.7827 181.0
43.8352 188.0
43.8878 207.0
43.9403 210.0
43.9928 166.0
44.0453 209.0
44.0978 188.0
44.1504 186.0
44.2029 205.0
44.2554 191.0
44.3079 207.0
44.3604 206.0
44.413 198.0
44.4655 201.0
44.518 184.0
44.5705 208.0
44.6231 193.0
44.6756 223.0
44.7281 215.0
44.7806 180.0
44.8331 202.0
44.8857 200.0
44.9382 206.0
44.9907 195.0
45.0432 181.0
45.0957 183.0
45.1483 201.0
45.2008 182.0
45.2533 153.0
45.3058 197.0
45.3584 188.0
45.4109 180.0
45.4634 184.0
45.5159 171.0
45.5684 133.0
45.621 157.0
45.6735 137.0
45.726 147.0
45.7785 141.0
45.831 129.0
45.8836 148.0
45.9361 112.0
45.9886 123.0
46.0411 122.0
46.0936 127.0
46.1462 115.0
46.1987 125.0
46.2512 121.0
46.3037 130.0
46.3563 120.0
46.4088 125.0
46.4613 126.0
46.5138 135.0
46.5663 133.0
46.6189 144.0
46.6714 136.0
46.7239 139.0
46.7764 140.0
46.8289 120.0
46.8815 129.0
46.934 132.0
46.9865 134.0
47.039 117.0
47.0915 125.0
47.1441 114.0
47.1966 120.0
47.2491 132.0
47.3016 112.0
47.3542 116.0
47.4067 122.0
47.4592 125.0
47.5117 107.0
47.5642 121.0
47.6168 114.0
47.6693 139.0
47.7218 127.0
47.7743 125.0
47.8268 120.0
47.8794 122.0
47.9319 115.0
47.9844 128.0
48.0369 122.0
48.0895 107.0
48.142 110.0
48.1945 112.0
48.247 130.0
48.2995 115.0
48.3521 114.0
48.4046 126.0
48.4571 128.0
48.5096 120.0
48.5621 114.0
48.6147 114.0
48.6672 110.0
48.7197 132.0
48.7722 117.0
48.8247 135.0
48.8773 123.0
48.9298 129.0
48.9823 127.0
49.0348 113.0
49.0874 117.0
49.1399 148.0
49.1924 104.0
49.2449 128.0
49.2974 156.0
49.35 135.0
49.4025 141.0
49.455 142.0
49.5075 146.0
49.56 136.0
49.6126 142.0
49.6651 116.0
49.7176 118.0
49.7701 139.0
49.8226 143.0
49.8752 126.0
49.9277 136.0
49.9802 142.0
50.0065 126.0