File: Br-Cl_phases/XRD/original/220615_8s_GIXRD.xy
10.0116 366.0
10.0642 404.0
10.1167 387.0
10.1692 359.0
10.2217 372.0
10.2742 360.0
10.3268 346.0
10.3793 395.0
10.4318 373.0
10.4843 331.0
10.5368 373.0
10.5894 368.0
10.6419 386.0
10.6944 366.0
10.7469 348.0
10.7994 368.0
10.852 355.0
10.9045 338.0
10.957 380.0
11.0095 353.0
11.0621 334.0
11.1146 367.0
11.1671 338.0
11.2196 382.0
11.2721 377.0
11.3247 362.0
11.3772 345.0
11.4297 377.0
11.4822 356.0
11.5347 333.0
11.5873 338.0
11.6398 313.0
11.6923 326.0
11.7448 337.0
11.7973 340.0
11.8499 333.0
11.9024 358.0
11.9549 333.0
12.0074 305.0
12.06 329.0
12.1125 319.0
12.165 307.0
12.2175 362.0
12.27 321.0
12.3226 353.0
12.3751 385.0
12.4276 356.0
12.4801 354.0
12.5326 352.0
12.5852 325.0
12.6377 325.0
12.6902 371.0
12.7427 359.0
12.7953 319.0
12.8478 355.0
12.9003 356.0
12.9528 318.0
13.0053 343.0
13.0579 332.0
13.1104 313.0
13.1629 306.0
13.2154 347.0
13.2679 313.0
13.3205 271.0
13.373 329.0
13.4255 300.0
13.478 308.0
13.5305 290.0
13.5831 283.0
13.6356 307.0
13.6881 319.0
13.7406 307.0
13.7932 311.0
13.8457 292.0
13.8982 303.0
13.9507 282.0
14.0032 277.0
14.0558 289.0
14.1083 318.0
14.1608 297.0
14.2133 282.0
14.2658 269.0
14.3184 311.0
14.3709 334.0
14.4234 343.0
14.4759 323.0
14.5284 320.0
14.581 318.0
14.6335 367.0
14.686 412.0
14.7385 460.0
14.7911 484.0
14.8436 562.0
14.8961 676.0
14.9486 714.0
15.0011 791.0
15.0537 748.0
15.1062 825.0
15.1587 845.0
15.2112 843.0
15.2637 924.0
15.3163 896.0
15.3688 875.0
15.4213 815.0
15.4738 860.0
15.5263 831.0
15.5789 843.0
15.6314 798.0
15.6839 734.0
15.7364 684.0
15.789 584.0
15.8415 535.0
15.894 432.0
15.9465 344.0
15.999 302.0
16.0516 319.0
16.1041 293.0
16.1566 276.0
16.2091 281.0
16.2616 275.0
16.3142 307.0
16.3667 278.0
16.4192 289.0
16.4717 291.0
16.5243 255.0
16.5768 251.0
16.6293 275.0
16.6818 238.0
16.7343 242.0
16.7869 279.0
16.8394 271.0
16.8919 275.0
16.9444 257.0
16.9969 287.0
17.0495 281.0
17.102 266.0
17.1545 296.0
17.207 271.0
17.2595 252.0
17.3121 275.0
17.3646 271.0
17.4171 267.0
17.4696 257.0
17.5222 293.0
17.5747 245.0
17.6272 273.0
17.6797 258.0
17.7322 289.0
17.7848 258.0
17.8373 273.0
17.8898 278.0
17.9423 288.0
17.9948 247.0
18.0474 253.0
18.0999 300.0
18.1524 273.0
18.2049 276.0
18.2574 242.0
18.31 239.0
18.3625 273.0
18.415 267.0
18.4675 279.0
18.5201 283.0
18.5726 261.0
18.6251 279.0
18.6776 322.0
18.7301 275.0
18.7827 296.0
18.8352 285.0
18.8877 255.0
18.9402 301.0
18.9927 272.0
19.0453 266.0
19.0978 277.0
19.1503 326.0
19.2028 317.0
19.2553 268.0
19.3079 334.0
19.3604 302.0
19.4129 303.0
19.4654 288.0
19.518 291.0
19.5705 285.0
19.623 304.0
19.6755 322.0
19.728 313.0
19.7806 323.0
19.8331 306.0
19.8856 323.0
19.9381 293.0
19.9906 298.0
20.0432 310.0
20.0957 295.0
20.1482 313.0
20.2007 335.0
20.2533 310.0
20.3058 272.0
20.3583 301.0
20.4108 300.0
20.4633 328.0
20.5159 330.0
20.5684 336.0
20.6209 323.0
20.6734 316.0
20.7259 351.0
20.7785 332.0
20.831 367.0
20.8835 362.0
20.936 413.0
20.9885 460.0
21.0411 455.0
21.0936 478.0
21.1461 497.0
21.1986 563.0
21.2512 541.0
21.3037 556.0
21.3562 597.0
21.4087 571.0
21.4612 588.0
21.5138 668.0
21.5663 608.0
21.6188 635.0
21.6713 598.0
21.7238 615.0
21.7764 650.0
21.8289 620.0
21.8814 629.0
21.9339 611.0
21.9864 619.0
22.039 641.0
22.0915 571.0
22.144 576.0
22.1965 587.0
22.2491 588.0
22.3016 512.0
22.3541 475.0
22.4066 493.0
22.4591 420.0
22.5117 403.0
22.5642 357.0
22.6167 313.0
22.6692 312.0
22.7217 288.0
22.7743 277.0
22.8268 260.0
22.8793 282.0
22.9318 267.0
22.9843 303.0
23.0369 287.0
23.0894 242.0
23.1419 276.0
23.1944 270.0
23.247 290.0
23.2995 257.0
23.352 282.0
23.4045 282.0
23.457 265.0
23.5096 263.0
23.5621 242.0
23.6146 253.0
23.6671 274.0
23.7196 303.0
23.7722 283.0
23.8247 289.0
23.8772 306.0
23.9297 268.0
23.9823 264.0
24.0348 300.0
24.0873 325.0
24.1398 290.0
24.1923 293.0
24.2449 277.0
24.2974 275.0
24.3499 286.0
24.4024 272.0
24.4549 271.0
24.5075 285.0
24.56 272.0
24.6125 247.0
24.665 259.0
24.7175 279.0
24.7701 241.0
24.8226 252.0
24.8751 284.0
24.9276 269.0
24.9802 254.0
25.0327 245.0
25.0852 235.0
25.1377 247.0
25.1902 273.0
25.2428 241.0
25.2953 249.0
25.3478 217.0
25.4003 236.0
25.4528 259.0
25.5054 221.0
25.5579 227.0
25.6104 236.0
25.6629 238.0
25.7154 250.0
25.768 227.0
25.8205 248.0
25.873 273.0
25.9255 216.0
25.9781 238.0
26.0306 225.0
26.0831 225.0
26.1356 238.0
26.1881 225.0
26.2407 221.0
26.2932 226.0
26.3457 237.0
26.3982 213.0
26.4507 222.0
26.5033 194.0
26.5558 186.0
26.6083 181.0
26.6608 221.0
26.7133 214.0
26.7659 211.0
26.8184 221.0
26.8709 204.0
26.9234 196.0
26.976 194.0
27.0285 194.0
27.081 193.0
27.1335 196.0
27.186 200.0
27.2386 191.0
27.2911 184.0
27.3436 200.0
27.3961 202.0
27.4486 204.0
27.5012 207.0
27.5537 194.0
27.6062 183.0
27.6587 204.0
27.7113 224.0
27.7638 198.0
27.8163 207.0
27.8688 217.0
27.9213 184.0
27.9739 226.0
28.0264 196.0
28.0789 202.0
28.1314 218.0
28.1839 204.0
28.2365 208.0
28.289 207.0
28.3415 201.0
28.394 204.0
28.4465 207.0
28.4991 198.0
28.5516 188.0
28.6041 206.0
28.6566 181.0
28.7092 218.0
28.7617 184.0
28.8142 199.0
28.8667 193.0
28.9192 178.0
28.9718 211.0
29.0243 230.0
29.0768 221.0
29.1293 196.0
29.1818 215.0
29.2344 209.0
29.2869 234.0
29.3394 190.0
29.3919 241.0
29.4444 223.0
29.497 193.0
29.5495 214.0
29.602 229.0
29.6545 298.0
29.7071 279.0
29.7596 305.0
29.8121 305.0
29.8646 392.0
29.9171 351.0
29.9697 405.0
30.0222 421.0
30.0747 522.0
30.1272 530.0
30.1797 519.0
30.2323 576.0
30.2848 642.0
30.3373 675.0
30.3898 707.0
30.4424 711.0
30.4949 757.0
30.5474 759.0
30.5999 735.0
30.6524 777.0
30.705 740.0
30.7575 770.0
30.81 807.0
30.8625 807.0
30.915 828.0
30.9676 835.0
31.0201 822.0
31.0726 846.0
31.1251 837.0
31.1776 837.0
31.2302 765.0
31.2827 808.0
31.3352 835.0
31.3877 796.0
31.4403 819.0
31.4928 721.0
31.5453 736.0
31.5978 779.0
31.6503 682.0
31.7029 698.0
31.7554 623.0
31.8079 646.0
31.8604 576.0
31.9129 561.0
31.9655 435.0
32.018 408.0
32.0705 335.0
32.123 289.0
32.1755 251.0
32.2281 189.0
32.2806 209.0
32.3331 199.0
32.3856 169.0
32.4382 164.0
32.4907 170.0
32.5432 179.0
32.5957 180.0
32.6482 161.0
32.7008 151.0
32.7533 159.0
32.8058 173.0
32.8583 163.0
32.9108 152.0
32.9634 161.0
33.0159 127.0
33.0684 146.0
33.1209 161.0
33.1734 166.0
33.226 181.0
33.2785 182.0
33.331 152.0
33.3835 181.0
33.4361 154.0
33.4886 186.0
33.5411 143.0
33.5936 168.0
33.6461 211.0
33.6987 163.0
33.7512 178.0
33.8037 193.0
33.8562 207.0
33.9087 180.0
33.9613 196.0
34.0138 215.0
34.0663 204.0
34.1188 197.0
34.1714 189.0
34.2239 201.0
34.2764 224.0
34.3289 222.0
34.3814 216.0
34.434 228.0
34.4865 233.0
34.539 231.0
34.5915 199.0
34.644 215.0
34.6966 215.0
34.7491 242.0
34.8016 222.0
34.8541 209.0
34.9066 240.0
34.9592 222.0
35.0117 211.0
35.0642 211.0
35.1167 225.0
35.1693 204.0
35.2218 199.0
35.2743 231.0
35.3268 211.0
35.3793 201.0
35.4319 197.0
35.4844 165.0
35.5369 173.0
35.5894 182.0
35.6419 171.0
35.6945 186.0
35.747 176.0
35.7995 177.0
35.852 157.0
35.9045 156.0
35.9571 134.0
36.0096 140.0
36.0621 122.0
36.1146 128.0
36.1672 133.0
36.2197 114.0
36.2722 136.0
36.3247 121.0
36.3772 118.0
36.4298 132.0
36.4823 163.0
36.5348 143.0
36.5873 131.0
36.6398 127.0
36.6924 143.0
36.7449 145.0
36.7974 148.0
36.8499 165.0
36.9024 164.0
36.955 155.0
37.0075 178.0
37.06 197.0
37.1125 227.0
37.1651 198.0
37.2176 183.0
37.2701 220.0
37.3226 214.0
37.3751 224.0
37.4277 217.0
37.4802 230.0
37.5327 215.0
37.5852 244.0
37.6377 255.0
37.6903 275.0
37.7428 228.0
37.7953 257.0
37.8478 264.0
37.9004 265.0
37.9529 259.0
38.0054 235.0
38.0579 253.0
38.1104 259.0
38.163 237.0
38.2155 273.0
38.268 260.0
38.3205 246.0
38.373 277.0
38.4256 264.0
38.4781 251.0
38.5306 255.0
38.5831 268.0
38.6356 276.0
38.6882 260.0
38.7407 242.0
38.7932 258.0
38.8457 235.0
38.8983 257.0
38.9508 216.0
39.0033 213.0
39.0558 231.0
39.1083 224.0
39.1609 221.0
39.2134 203.0
39.2659 227.0
39.3184 187.0
39.3709 172.0
39.4235 167.0
39.476 143.0
39.5285 146.0
39.581 117.0
39.6335 122.0
39.6861 113.0
39.7386 109.0
39.7911 113.0
39.8436 121.0
39.8962 146.0
39.9487 122.0
40.0012 117.0
40.0537 98.0
40.1062 108.0
40.1588 116.0
40.2113 105.0
40.2638 83.0
40.3163 91.0
40.3688 107.0
40.4214 109.0
40.4739 109.0
40.5264 102.0
40.5789 98.0
40.6314 99.0
40.684 103.0
40.7365 123.0
40.789 106.0
40.8415 116.0
40.8941 105.0
40.9466 108.0
40.9991 98.0
41.0516 122.0
41.1041 102.0
41.1567 111.0
41.2092 112.0
41.2617 125.0
41.3142 102.0
41.3667 110.0
41.4193 100.0
41.4718 118.0
41.5243 113.0
41.5768 92.0
41.6294 97.0
41.6819 87.0
41.7344 99.0
41.7869 105.0
41.8394 99.0
41.892 98.0
41.9445 97.0
41.997 86.0
42.0495 96.0
42.102 97.0
42.1546 100.0
42.2071 101.0
42.2596 112.0
42.3121 114.0
42.3646 104.0
42.4172 94.0
42.4697 106.0
42.5222 101.0
42.5747 111.0
42.6273 115.0
42.6798 89.0
42.7323 127.0
42.7848 126.0
42.8373 136.0
42.8899 120.0
42.9424 139.0
42.9949 112.0
43.0474 121.0
43.0999 121.0
43.1525 112.0
43.205 136.0
43.2575 144.0
43.31 164.0
43.3625 145.0
43.4151 142.0
43.4676 173.0
43.5201 154.0
43.5726 165.0
43.6252 177.0
43.6777 185.0
43.7302 164.0
43.7827 160.0
43.8352 152.0
43.8878 167.0
43.9403 167.0
43.9928 170.0
44.0453 163.0
44.0978 161.0
44.1504 165.0
44.2029 180.0
44.2554 178.0
44.3079 175.0
44.3604 155.0
44.413 159.0
44.4655 159.0
44.518 174.0
44.5705 193.0
44.6231 188.0
44.6756 188.0
44.7281 163.0
44.7806 174.0
44.8331 164.0
44.8857 165.0
44.9382 187.0
44.9907 190.0
45.0432 172.0
45.0957 160.0
45.1483 175.0
45.2008 160.0
45.2533 159.0
45.3058 171.0
45.3584 171.0
45.4109 154.0
45.4634 179.0
45.5159 161.0
45.5684 157.0
45.621 139.0
45.6735 159.0
45.726 150.0
45.7785 120.0
45.831 118.0
45.8836 118.0
45.9361 129.0
45.9886 108.0
46.0411 111.0
46.0936 132.0
46.1462 108.0
46.1987 122.0
46.2512 112.0
46.3037 139.0
46.3563 122.0
46.4088 131.0
46.4613 135.0
46.5138 122.0
46.5663 150.0
46.6189 127.0
46.6714 135.0
46.7239 126.0
46.7764 111.0
46.8289 127.0
46.8815 121.0
46.934 130.0
46.9865 126.0
47.039 143.0
47.0915 139.0
47.1441 130.0
47.1966 107.0
47.2491 163.0
47.3016 110.0
47.3542 114.0
47.4067 131.0
47.4592 134.0
47.5117 123.0
47.5642 102.0
47.6168 122.0
47.6693 122.0
47.7218 118.0
47.7743 111.0
47.8268 123.0
47.8794 116.0
47.9319 110.0
47.9844 112.0
48.0369 110.0
48.0895 140.0
48.142 130.0
48.1945 103.0
48.247 109.0
48.2995 147.0
48.3521 126.0
48.4046 119.0
48.4571 125.0
48.5096 136.0
48.5621 135.0
48.6147 117.0
48.6672 123.0
48.7197 109.0
48.7722 115.0
48.8247 128.0
48.8773 140.0
48.9298 134.0
48.9823 132.0
49.0348 117.0
49.0874 139.0
49.1399 118.0
49.1924 140.0
49.2449 131.0
49.2974 135.0
49.35 140.0
49.4025 131.0
49.455 141.0
49.5075 140.0
49.56 147.0
49.6126 143.0
49.6651 153.0
49.7176 129.0
49.7701 157.0
49.8226 130.0
49.8752 135.0
49.9277 129.0
49.9802 129.0
50.0065 152.0