File: Br-Cl_phases/XRD/original/220615_180s_GIXRD-u.xy
10.0116 370.0
10.0642 353.0
10.1167 378.0
10.1692 376.0
10.2217 408.0
10.2742 399.0
10.3268 375.0
10.3793 342.0
10.4318 367.0
10.4843 347.0
10.5368 372.0
10.5894 346.0
10.6419 356.0
10.6944 355.0
10.7469 317.0
10.7994 360.0
10.852 331.0
10.9045 356.0
10.957 365.0
11.0095 369.0
11.0621 369.0
11.1146 368.0
11.1671 363.0
11.2196 344.0
11.2721 340.0
11.3247 348.0
11.3772 305.0
11.4297 355.0
11.4822 340.0
11.5347 342.0
11.5873 305.0
11.6398 311.0
11.6923 348.0
11.7448 337.0
11.7973 356.0
11.8499 336.0
11.9024 328.0
11.9549 343.0
12.0074 375.0
12.06 346.0
12.1125 329.0
12.165 343.0
12.2175 360.0
12.27 352.0
12.3226 344.0
12.3751 322.0
12.4276 314.0
12.4801 357.0
12.5326 343.0
12.5852 332.0
12.6377 339.0
12.6902 285.0
12.7427 309.0
12.7953 336.0
12.8478 308.0
12.9003 311.0
12.9528 317.0
13.0053 317.0
13.0579 325.0
13.1104 293.0
13.1629 303.0
13.2154 326.0
13.2679 312.0
13.3205 321.0
13.373 340.0
13.4255 324.0
13.478 301.0
13.5305 278.0
13.5831 308.0
13.6356 302.0
13.6881 297.0
13.7406 322.0
13.7932 276.0
13.8457 286.0
13.8982 292.0
13.9507 259.0
14.0032 294.0
14.0558 287.0
14.1083 282.0
14.1608 283.0
14.2133 289.0
14.2658 265.0
14.3184 297.0
14.3709 265.0
14.4234 282.0
14.4759 296.0
14.5284 298.0
14.581 307.0
14.6335 310.0
14.686 326.0
14.7385 332.0
14.7911 323.0
14.8436 310.0
14.8961 404.0
14.9486 407.0
15.0011 458.0
15.0537 510.0
15.1062 523.0
15.1587 589.0
15.2112 589.0
15.2637 584.0
15.3163 610.0
15.3688 621.0
15.4213 601.0
15.4738 608.0
15.5263 638.0
15.5789 644.0
15.6314 645.0
15.6839 608.0
15.7364 595.0
15.789 544.0
15.8415 553.0
15.894 460.0
15.9465 418.0
15.999 384.0
16.0516 325.0
16.1041 309.0
16.1566 306.0
16.2091 270.0
16.2616 261.0
16.3142 268.0
16.3667 256.0
16.4192 254.0
16.4717 261.0
16.5243 265.0
16.5768 289.0
16.6293 261.0
16.6818 272.0
16.7343 238.0
16.7869 287.0
16.8394 237.0
16.8919 282.0
16.9444 252.0
16.9969 269.0
17.0495 241.0
17.102 258.0
17.1545 267.0
17.207 266.0
17.2595 288.0
17.3121 250.0
17.3646 265.0
17.4171 247.0
17.4696 266.0
17.5222 280.0
17.5747 289.0
17.6272 260.0
17.6797 237.0
17.7322 260.0
17.7848 277.0
17.8373 283.0
17.8898 245.0
17.9423 251.0
17.9948 285.0
18.0474 309.0
18.0999 245.0
18.1524 273.0
18.2049 299.0
18.2574 269.0
18.31 285.0
18.3625 291.0
18.415 247.0
18.4675 275.0
18.5201 273.0
18.5726 279.0
18.6251 264.0
18.6776 299.0
18.7301 294.0
18.7827 299.0
18.8352 288.0
18.8877 288.0
18.9402 283.0
18.9927 265.0
19.0453 297.0
19.0978 282.0
19.1503 296.0
19.2028 270.0
19.2553 279.0
19.3079 305.0
19.3604 256.0
19.4129 298.0
19.4654 294.0
19.518 336.0
19.5705 284.0
19.623 343.0
19.6755 276.0
19.728 313.0
19.7806 302.0
19.8331 295.0
19.8856 286.0
19.9381 287.0
19.9906 288.0
20.0432 309.0
20.0957 298.0
20.1482 288.0
20.2007 309.0
20.2533 317.0
20.3058 319.0
20.3583 333.0
20.4108 279.0
20.4633 357.0
20.5159 298.0
20.5684 319.0
20.6209 322.0
20.6734 345.0
20.7259 350.0
20.7785 323.0
20.831 331.0
20.8835 327.0
20.936 363.0
20.9885 414.0
21.0411 419.0
21.0936 527.0
21.1461 543.0
21.1986 616.0
21.2512 671.0
21.3037 731.0
21.3562 852.0
21.4087 822.0
21.4612 867.0
21.5138 884.0
21.5663 972.0
21.6188 892.0
21.6713 988.0
21.7238 936.0
21.7764 999.0
21.8289 937.0
21.8814 976.0
21.9339 1060.0
21.9864 975.0
22.039 1056.0
22.0915 1125.0
22.144 1060.0
22.1965 1041.0
22.2491 1052.0
22.3016 1030.0
22.3541 1024.0
22.4066 968.0
22.4591 919.0
22.5117 941.0
22.5642 829.0
22.6167 677.0
22.6692 578.0
22.7217 452.0
22.7743 353.0
22.8268 370.0
22.8793 332.0
22.9318 307.0
22.9843 312.0
23.0369 285.0
23.0894 284.0
23.1419 293.0
23.1944 284.0
23.247 268.0
23.2995 276.0
23.352 270.0
23.4045 275.0
23.457 272.0
23.5096 288.0
23.5621 286.0
23.6146 272.0
23.6671 238.0
23.7196 267.0
23.7722 291.0
23.8247 249.0
23.8772 257.0
23.9297 274.0
23.9823 277.0
24.0348 228.0
24.0873 253.0
24.1398 244.0
24.1923 286.0
24.2449 255.0
24.2974 232.0
24.3499 236.0
24.4024 227.0
24.4549 266.0
24.5075 230.0
24.56 255.0
24.6125 270.0
24.665 221.0
24.7175 273.0
24.7701 215.0
24.8226 246.0
24.8751 234.0
24.9276 236.0
24.9802 234.0
25.0327 273.0
25.0852 243.0
25.1377 256.0
25.1902 230.0
25.2428 219.0
25.2953 225.0
25.3478 223.0
25.4003 240.0
25.4528 220.0
25.5054 236.0
25.5579 214.0
25.6104 235.0
25.6629 242.0
25.7154 220.0
25.768 251.0
25.8205 224.0
25.873 225.0
25.9255 232.0
25.9781 229.0
26.0306 255.0
26.0831 212.0
26.1356 201.0
26.1881 233.0
26.2407 266.0
26.2932 204.0
26.3457 215.0
26.3982 201.0
26.4507 206.0
26.5033 213.0
26.5558 214.0
26.6083 200.0
26.6608 204.0
26.7133 199.0
26.7659 209.0
26.8184 205.0
26.8709 214.0
26.9234 220.0
26.976 178.0
27.0285 176.0
27.081 174.0
27.1335 184.0
27.186 192.0
27.2386 179.0
27.2911 176.0
27.3436 201.0
27.3961 189.0
27.4486 210.0
27.5012 192.0
27.5537 190.0
27.6062 204.0
27.6587 166.0
27.7113 178.0
27.7638 213.0
27.8163 196.0
27.8688 186.0
27.9213 185.0
27.9739 190.0
28.0264 196.0
28.0789 201.0
28.1314 191.0
28.1839 187.0
28.2365 184.0
28.289 200.0
28.3415 177.0
28.394 175.0
28.4465 182.0
28.4991 171.0
28.5516 191.0
28.6041 185.0
28.6566 189.0
28.7092 198.0
28.7617 198.0
28.8142 183.0
28.8667 174.0
28.9192 165.0
28.9718 191.0
29.0243 191.0
29.0768 178.0
29.1293 203.0
29.1818 192.0
29.2344 212.0
29.2869 168.0
29.3394 185.0
29.3919 182.0
29.4444 184.0
29.497 191.0
29.5495 207.0
29.602 184.0
29.6545 184.0
29.7071 204.0
29.7596 183.0
29.8121 189.0
29.8646 187.0
29.9171 207.0
29.9697 193.0
30.0222 223.0
30.0747 226.0
30.1272 244.0
30.1797 280.0
30.2323 303.0
30.2848 318.0
30.3373 344.0
30.3898 342.0
30.4424 386.0
30.4949 405.0
30.5474 436.0
30.5999 421.0
30.6524 441.0
30.705 415.0
30.7575 463.0
30.81 452.0
30.8625 479.0
30.915 526.0
30.9676 495.0
31.0201 516.0
31.0726 499.0
31.1251 475.0
31.1776 517.0
31.2302 564.0
31.2827 532.0
31.3352 571.0
31.3877 542.0
31.4403 501.0
31.4928 505.0
31.5453 527.0
31.5978 539.0
31.6503 512.0
31.7029 488.0
31.7554 529.0
31.8079 510.0
31.8604 463.0
31.9129 459.0
31.9655 460.0
32.018 454.0
32.0705 427.0
32.123 429.0
32.1755 353.0
32.2281 314.0
32.2806 283.0
32.3331 230.0
32.3856 187.0
32.4382 180.0
32.4907 163.0
32.5432 148.0
32.5957 147.0
32.6482 154.0
32.7008 154.0
32.7533 145.0
32.8058 151.0
32.8583 154.0
32.9108 152.0
32.9634 138.0
33.0159 136.0
33.0684 126.0
33.1209 139.0
33.1734 127.0
33.226 135.0
33.2785 145.0
33.331 121.0
33.3835 131.0
33.4361 156.0
33.4886 143.0
33.5411 152.0
33.5936 134.0
33.6461 148.0
33.6987 138.0
33.7512 131.0
33.8037 139.0
33.8562 161.0
33.9087 136.0
33.9613 153.0
34.0138 142.0
34.0663 158.0
34.1188 191.0
34.1714 196.0
34.2239 171.0
34.2764 170.0
34.3289 157.0
34.3814 170.0
34.434 200.0
34.4865 168.0
34.539 208.0
34.5915 204.0
34.644 196.0
34.6966 193.0
34.7491 206.0
34.8016 161.0
34.8541 197.0
34.9066 172.0
34.9592 189.0
35.0117 198.0
35.0642 176.0
35.1167 192.0
35.1693 203.0
35.2218 191.0
35.2743 218.0
35.3268 177.0
35.3793 188.0
35.4319 214.0
35.4844 195.0
35.5369 199.0
35.5894 197.0
35.6419 192.0
35.6945 159.0
35.747 175.0
35.7995 168.0
35.852 179.0
35.9045 174.0
35.9571 175.0
36.0096 186.0
36.0621 159.0
36.1146 161.0
36.1672 159.0
36.2197 133.0
36.2722 124.0
36.3247 128.0
36.3772 115.0
36.4298 110.0
36.4823 131.0
36.5348 107.0
36.5873 102.0
36.6398 133.0
36.6924 150.0
36.7449 144.0
36.7974 123.0
36.8499 118.0
36.9024 127.0
36.955 121.0
37.0075 155.0
37.06 139.0
37.1125 120.0
37.1651 173.0
37.2176 170.0
37.2701 189.0
37.3226 158.0
37.3751 208.0
37.4277 186.0
37.4802 216.0
37.5327 214.0
37.5852 214.0
37.6377 222.0
37.6903 235.0
37.7428 247.0
37.7953 275.0
37.8478 260.0
37.9004 279.0
37.9529 266.0
38.0054 285.0
38.0579 262.0
38.1104 236.0
38.163 251.0
38.2155 270.0
38.268 292.0
38.3205 260.0
38.373 291.0
38.4256 293.0
38.4781 272.0
38.5306 261.0
38.5831 265.0
38.6356 294.0
38.6882 273.0
38.7407 273.0
38.7932 288.0
38.8457 293.0
38.8983 276.0
38.9508 239.0
39.0033 310.0
39.0558 284.0
39.1083 279.0
39.1609 251.0
39.2134 270.0
39.2659 282.0
39.3184 265.0
39.3709 269.0
39.4235 247.0
39.476 264.0
39.5285 245.0
39.581 223.0
39.6335 194.0
39.6861 180.0
39.7386 165.0
39.7911 144.0
39.8436 140.0
39.8962 123.0
39.9487 118.0
40.0012 102.0
40.0537 112.0
40.1062 126.0
40.1588 112.0
40.2113 106.0
40.2638 113.0
40.3163 117.0
40.3688 108.0
40.4214 111.0
40.4739 108.0
40.5264 110.0
40.5789 106.0
40.6314 102.0
40.684 113.0
40.7365 123.0
40.789 96.0
40.8415 105.0
40.8941 94.0
40.9466 113.0
40.9991 117.0
41.0516 112.0
41.1041 110.0
41.1567 105.0
41.2092 96.0
41.2617 99.0
41.3142 99.0
41.3667 89.0
41.4193 106.0
41.4718 100.0
41.5243 107.0
41.5768 117.0
41.6294 97.0
41.6819 90.0
41.7344 103.0
41.7869 91.0
41.8394 114.0
41.892 124.0
41.9445 97.0
41.997 94.0
42.0495 87.0
42.102 100.0
42.1546 106.0
42.2071 89.0
42.2596 112.0
42.3121 92.0
42.3646 94.0
42.4172 88.0
42.4697 97.0
42.5222 90.0
42.5747 96.0
42.6273 102.0
42.6798 101.0
42.7323 103.0
42.7848 93.0
42.8373 120.0
42.8899 96.0
42.9424 124.0
42.9949 104.0
43.0474 117.0
43.0999 124.0
43.1525 103.0
43.205 126.0
43.2575 122.0
43.31 113.0
43.3625 129.0
43.4151 149.0
43.4676 146.0
43.5201 125.0
43.5726 142.0
43.6252 145.0
43.6777 143.0
43.7302 134.0
43.7827 144.0
43.8352 173.0
43.8878 167.0
43.9403 156.0
43.9928 157.0
44.0453 166.0
44.0978 155.0
44.1504 169.0
44.2029 169.0
44.2554 196.0
44.3079 176.0
44.3604 168.0
44.413 185.0
44.4655 198.0
44.518 183.0
44.5705 194.0
44.6231 185.0
44.6756 217.0
44.7281 200.0
44.7806 197.0
44.8331 209.0
44.8857 184.0
44.9382 202.0
44.9907 178.0
45.0432 208.0
45.0957 192.0
45.1483 199.0
45.2008 203.0
45.2533 176.0
45.3058 173.0
45.3584 191.0
45.4109 184.0
45.4634 196.0
45.5159 191.0
45.5684 202.0
45.621 171.0
45.6735 210.0
45.726 173.0
45.7785 160.0
45.831 167.0
45.8836 148.0
45.9361 147.0
45.9886 185.0
46.0411 150.0
46.0936 150.0
46.1462 147.0
46.1987 168.0
46.2512 142.0
46.3037 128.0
46.3563 119.0
46.4088 124.0
46.4613 122.0
46.5138 121.0
46.5663 129.0
46.6189 106.0
46.6714 129.0
46.7239 113.0
46.7764 111.0
46.8289 111.0
46.8815 120.0
46.934 120.0
46.9865 126.0
47.039 121.0
47.0915 112.0
47.1441 120.0
47.1966 115.0
47.2491 116.0
47.3016 116.0
47.3542 122.0
47.4067 123.0
47.4592 131.0
47.5117 109.0
47.5642 128.0
47.6168 125.0
47.6693 95.0
47.7218 137.0
47.7743 116.0
47.8268 111.0
47.8794 119.0
47.9319 129.0
47.9844 122.0
48.0369 87.0
48.0895 113.0
48.142 114.0
48.1945 119.0
48.247 122.0
48.2995 97.0
48.3521 112.0
48.4046 129.0
48.4571 95.0
48.5096 127.0
48.5621 100.0
48.6147 123.0
48.6672 118.0
48.7197 105.0
48.7722 120.0
48.8247 123.0
48.8773 100.0
48.9298 100.0
48.9823 124.0
49.0348 126.0
49.0874 120.0
49.1399 140.0
49.1924 128.0
49.2449 109.0
49.2974 110.0
49.35 112.0
49.4025 127.0
49.455 134.0
49.5075 139.0
49.56 131.0
49.6126 129.0
49.6651 148.0
49.7176 134.0
49.7701 119.0
49.8226 145.0
49.8752 139.0
49.9277 133.0
49.9802 132.0
50.0065 159.0