File: Br-Cl_phases/XRD/original/Si-reference_GIXRD.xy
10.0116 1263.0
10.0642 1272.0
10.1167 1205.0
10.1692 1250.0
10.2217 1265.0
10.2742 1297.0
10.3268 1269.0
10.3793 1246.0
10.4318 1251.0
10.4843 1262.0
10.5368 1197.0
10.5894 1275.0
10.6419 1220.0
10.6944 1265.0
10.7469 1230.0
10.7994 1278.0
10.852 1257.0
10.9045 1165.0
10.957 1193.0
11.0095 1272.0
11.0621 1221.0
11.1146 1255.0
11.1671 1252.0
11.2196 1250.0
11.2721 1259.0
11.3247 1270.0
11.3772 1254.0
11.4297 1276.0
11.4822 1360.0
11.5347 1219.0
11.5873 1229.0
11.6398 1285.0
11.6923 1235.0
11.7448 1309.0
11.7973 1321.0
11.8499 1289.0
11.9024 1320.0
11.9549 1302.0
12.0074 1340.0
12.06 1317.0
12.1125 1298.0
12.165 1295.0
12.2175 1293.0
12.27 1264.0
12.3226 1268.0
12.3751 1328.0
12.4276 1302.0
12.4801 1387.0
12.5326 1315.0
12.5852 1295.0
12.6377 1349.0
12.6902 1276.0
12.7427 1256.0
12.7953 1295.0
12.8478 1240.0
12.9003 1270.0
12.9528 1363.0
13.0053 1295.0
13.0579 1284.0
13.1104 1239.0
13.1629 1338.0
13.2154 1311.0
13.2679 1307.0
13.3205 1354.0
13.373 1335.0
13.4255 1326.0
13.478 1317.0
13.5305 1297.0
13.5831 1315.0
13.6356 1308.0
13.6881 1411.0
13.7406 1348.0
13.7932 1348.0
13.8457 1425.0
13.8982 1380.0
13.9507 1413.0
14.0032 1385.0
14.0558 1334.0
14.1083 1398.0
14.1608 1324.0
14.2133 1339.0
14.2658 1415.0
14.3184 1475.0
14.3709 1474.0
14.4234 1408.0
14.4759 1432.0
14.5284 1350.0
14.581 1408.0
14.6335 1372.0
14.686 1375.0
14.7385 1368.0
14.7911 1405.0
14.8436 1360.0
14.8961 1395.0
14.9486 1407.0
15.0011 1339.0
15.0537 1463.0
15.1062 1515.0
15.1587 1480.0
15.2112 1466.0
15.2637 1487.0
15.3163 1551.0
15.3688 1445.0
15.4213 1492.0
15.4738 1422.0
15.5263 1498.0
15.5789 1483.0
15.6314 1459.0
15.6839 1496.0
15.7364 1446.0
15.789 1461.0
15.8415 1537.0
15.894 1538.0
15.9465 1488.0
15.999 1532.0
16.0516 1553.0
16.1041 1456.0
16.1566 1564.0
16.2091 1619.0
16.2616 1645.0
16.3142 1514.0
16.3667 1629.0
16.4192 1562.0
16.4717 1636.0
16.5243 1696.0
16.5768 1700.0
16.6293 1657.0
16.6818 1621.0
16.7343 1661.0
16.7869 1629.0
16.8394 1691.0
16.8919 1697.0
16.9444 1712.0
16.9969 1720.0
17.0495 1643.0
17.102 1785.0
17.1545 1644.0
17.207 1734.0
17.2595 1694.0
17.3121 1711.0
17.3646 1764.0
17.4171 1778.0
17.4696 1708.0
17.5222 1771.0
17.5747 1756.0
17.6272 1813.0
17.6797 1792.0
17.7322 1701.0
17.7848 1819.0
17.8373 1861.0
17.8898 1812.0
17.9423 1786.0
17.9948 1858.0
18.0474 1734.0
18.0999 1805.0
18.1524 1850.0
18.2049 1807.0
18.2574 1825.0
18.31 1831.0
18.3625 1811.0
18.415 1887.0
18.4675 1822.0
18.5201 1920.0
18.5726 1859.0
18.6251 1919.0
18.6776 1850.0
18.7301 1883.0
18.7827 1941.0
18.8352 1887.0
18.8877 1929.0
18.9402 1846.0
18.9927 1928.0
19.0453 1953.0
19.0978 1874.0
19.1503 1870.0
19.2028 1914.0
19.2553 1928.0
19.3079 1890.0
19.3604 1891.0
19.4129 1872.0
19.4654 1869.0
19.518 1945.0
19.5705 1891.0
19.623 1925.0
19.6755 1910.0
19.728 1890.0
19.7806 1958.0
19.8331 1960.0
19.8856 1880.0
19.9381 1930.0
19.9906 1882.0
20.0432 1875.0
20.0957 1953.0
20.1482 1901.0
20.2007 1803.0
20.2533 1829.0
20.3058 1758.0
20.3583 1850.0
20.4108 1862.0
20.4633 1843.0
20.5159 1833.0
20.5684 1907.0
20.6209 1903.0
20.6734 1851.0
20.7259 1858.0
20.7785 1820.0
20.831 1877.0
20.8835 1791.0
20.936 1816.0
20.9885 1808.0
21.0411 1805.0
21.0936 1814.0
21.1461 1800.0
21.1986 1852.0
21.2512 1781.0
21.3037 1738.0
21.3562 1792.0
21.4087 1810.0
21.4612 1740.0
21.5138 1730.0
21.5663 1750.0
21.6188 1757.0
21.6713 1701.0
21.7238 1682.0
21.7764 1725.0
21.8289 1695.0
21.8814 1707.0
21.9339 1521.0
21.9864 1610.0
22.039 1578.0
22.0915 1612.0
22.144 1616.0
22.1965 1598.0
22.2491 1547.0
22.3016 1538.0
22.3541 1522.0
22.4066 1595.0
22.4591 1612.0
22.5117 1519.0
22.5642 1553.0
22.6167 1474.0
22.6692 1599.0
22.7217 1554.0
22.7743 1526.0
22.8268 1547.0
22.8793 1508.0
22.9318 1505.0
22.9843 1497.0
23.0369 1507.0
23.0894 1525.0
23.1419 1503.0
23.1944 1474.0
23.247 1462.0
23.2995 1409.0
23.352 1416.0
23.4045 1407.0
23.457 1429.0
23.5096 1407.0
23.5621 1399.0
23.6146 1361.0
23.6671 1353.0
23.7196 1372.0
23.7722 1356.0
23.8247 1359.0
23.8772 1347.0
23.9297 1308.0
23.9823 1285.0
24.0348 1358.0
24.0873 1300.0
24.1398 1311.0
24.1923 1270.0
24.2449 1247.0
24.2974 1285.0
24.3499 1279.0
24.4024 1256.0
24.4549 1287.0
24.5075 1246.0
24.56 1307.0
24.6125 1254.0
24.665 1289.0
24.7175 1205.0
24.7701 1217.0
24.8226 1209.0
24.8751 1229.0
24.9276 1202.0
24.9802 1210.0
25.0327 1187.0
25.0852 1156.0
25.1377 1187.0
25.1902 1187.0
25.2428 1142.0
25.2953 1154.0
25.3478 1083.0
25.4003 1189.0
25.4528 1176.0
25.5054 1180.0
25.5579 1140.0
25.6104 1100.0
25.6629 1133.0
25.7154 1099.0
25.768 1067.0
25.8205 1089.0
25.873 1066.0
25.9255 1138.0
25.9781 1094.0
26.0306 1135.0
26.0831 1121.0
26.1356 1081.0
26.1881 1032.0
26.2407 1049.0
26.2932 1132.0
26.3457 1042.0
26.3982 1063.0
26.4507 1038.0
26.5033 1088.0
26.5558 1049.0
26.6083 1064.0
26.6608 1038.0
26.7133 1076.0
26.7659 1059.0
26.8184 1112.0
26.8709 1116.0
26.9234 1196.0
26.976 1223.0
27.0285 1315.0
27.081 1396.0
27.1335 1467.0
27.186 2011.0
27.2386 1634.0
27.2911 1710.0
27.3436 1613.0
27.3961 1642.0
27.4486 1550.0
27.5012 1663.0
27.5537 1595.0
27.6062 1845.0
27.6587 1655.0
27.7113 1775.0
27.7638 1895.0
27.8163 1812.0
27.8688 1732.0
27.9213 1762.0
27.9739 1828.0
28.0264 1835.0
28.0789 2461.0
28.1314 2054.0
28.1839 2102.0
28.2365 2255.0
28.289 2000.0
28.3415 2257.0
28.394 1955.0
28.4465 2221.0
28.4991 2232.0
28.5516 3269.0
28.6041 2257.0
28.6566 2142.0
28.7092 2565.0
28.7617 3552.0
28.8142 2720.0
28.8667 2613.0
28.9192 2524.0
28.9718 2694.0
29.0243 3146.0
29.0768 3746.0
29.1293 3311.0
29.1818 1974.0
29.2344 1665.0
29.2869 1199.0
29.3394 1023.0
29.3919 993.0
29.4444 933.0
29.497 961.0
29.5495 900.0
29.602 856.0
29.6545 900.0
29.7071 884.0
29.7596 909.0
29.8121 894.0
29.8646 847.0
29.9171 859.0
29.9697 896.0
30.0222 865.0
30.0747 871.0
30.1272 826.0
30.1797 836.0
30.2323 895.0
30.2848 815.0
30.3373 830.0
30.3898 881.0
30.4424 811.0
30.4949 884.0
30.5474 869.0
30.5999 834.0
30.6524 797.0
30.705 820.0
30.7575 811.0
30.81 822.0
30.8625 791.0
30.915 806.0
30.9676 850.0
31.0201 821.0
31.0726 788.0
31.1251 825.0
31.1776 800.0
31.2302 771.0
31.2827 796.0
31.3352 814.0
31.3877 782.0
31.4403 814.0
31.4928 770.0
31.5453 820.0
31.5978 761.0
31.6503 841.0
31.7029 788.0
31.7554 854.0
31.8079 823.0
31.8604 804.0
31.9129 809.0
31.9655 799.0
32.018 806.0
32.0705 731.0
32.123 774.0
32.1755 806.0
32.2281 778.0
32.2806 775.0
32.3331 781.0
32.3856 780.0
32.4382 710.0
32.4907 803.0
32.5432 758.0
32.5957 741.0
32.6482 752.0
32.7008 780.0
32.7533 801.0
32.8058 782.0
32.8583 789.0
32.9108 796.0
32.9634 758.0
33.0159 797.0
33.0684 700.0
33.1209 775.0
33.1734 784.0
33.226 764.0
33.2785 710.0
33.331 742.0
33.3835 716.0
33.4361 717.0
33.4886 727.0
33.5411 721.0
33.5936 680.0
33.6461 713.0
33.6987 704.0
33.7512 685.0
33.8037 725.0
33.8562 669.0
33.9087 696.0
33.9613 704.0
34.0138 694.0
34.0663 665.0
34.1188 708.0
34.1714 662.0
34.2239 668.0
34.2764 668.0
34.3289 717.0
34.3814 670.0
34.434 667.0
34.4865 670.0
34.539 674.0
34.5915 659.0
34.644 700.0
34.6966 648.0
34.7491 671.0
34.8016 689.0
34.8541 655.0
34.9066 684.0
34.9592 694.0
35.0117 700.0
35.0642 678.0
35.1167 675.0
35.1693 688.0
35.2218 694.0
35.2743 666.0
35.3268 614.0
35.3793 673.0
35.4319 633.0
35.4844 660.0
35.5369 640.0
35.5894 651.0
35.6419 669.0
35.6945 654.0
35.747 644.0
35.7995 604.0
35.852 649.0
35.9045 615.0
35.9571 641.0
36.0096 626.0
36.0621 715.0
36.1146 620.0
36.1672 653.0
36.2197 628.0
36.2722 618.0
36.3247 663.0
36.3772 604.0
36.4298 617.0
36.4823 628.0
36.5348 590.0
36.5873 613.0
36.6398 639.0
36.6924 628.0
36.7449 616.0
36.7974 643.0
36.8499 669.0
36.9024 618.0
36.955 595.0
37.0075 571.0
37.06 583.0
37.1125 640.0
37.1651 592.0
37.2176 600.0
37.2701 657.0
37.3226 605.0
37.3751 611.0
37.4277 654.0
37.4802 615.0
37.5327 626.0
37.5852 566.0
37.6377 606.0
37.6903 618.0
37.7428 618.0
37.7953 589.0
37.8478 633.0
37.9004 596.0
37.9529 653.0
38.0054 617.0
38.0579 594.0
38.1104 611.0
38.163 591.0
38.2155 637.0
38.268 618.0
38.3205 581.0
38.373 591.0
38.4256 594.0
38.4781 584.0
38.5306 605.0
38.5831 564.0
38.6356 613.0
38.6882 571.0
38.7407 612.0
38.7932 576.0
38.8457 618.0
38.8983 603.0
38.9508 638.0
39.0033 553.0
39.0558 613.0
39.1083 581.0
39.1609 621.0
39.2134 603.0
39.2659 650.0
39.3184 612.0
39.3709 631.0
39.4235 599.0
39.476 610.0
39.5285 617.0
39.581 572.0
39.6335 574.0
39.6861 590.0
39.7386 645.0
39.7911 612.0
39.8436 638.0
39.8962 564.0
39.9487 582.0
40.0012 604.0
40.0537 588.0
40.1062 591.0
40.1588 572.0
40.2113 606.0
40.2638 563.0
40.3163 603.0
40.3688 569.0
40.4214 582.0
40.4739 590.0
40.5264 557.0
40.5789 621.0
40.6314 551.0
40.684 531.0
40.7365 591.0
40.789 584.0
40.8415 577.0
40.8941 586.0
40.9466 586.0
40.9991 562.0
41.0516 543.0
41.1041 543.0
41.1567 558.0
41.2092 610.0
41.2617 597.0
41.3142 559.0
41.3667 610.0
41.4193 501.0
41.4718 605.0
41.5243 515.0
41.5768 572.0
41.6294 575.0
41.6819 553.0
41.7344 596.0
41.7869 610.0
41.8394 587.0
41.892 548.0
41.9445 588.0
41.997 550.0
42.0495 579.0
42.102 546.0
42.1546 577.0
42.2071 579.0
42.2596 573.0
42.3121 592.0
42.3646 568.0
42.4172 574.0
42.4697 569.0
42.5222 539.0
42.5747 495.0
42.6273 562.0
42.6798 581.0
42.7323 546.0
42.7848 526.0
42.8373 561.0
42.8899 554.0
42.9424 601.0
42.9949 584.0
43.0474 590.0
43.0999 581.0
43.1525 597.0
43.205 598.0
43.2575 564.0
43.31 611.0
43.3625 618.0
43.4151 591.0
43.4676 627.0
43.5201 594.0
43.5726 609.0
43.6252 603.0
43.6777 592.0
43.7302 607.0
43.7827 608.0
43.8352 581.0
43.8878 588.0
43.9403 593.0
43.9928 610.0
44.0453 580.0
44.0978 592.0
44.1504 619.0
44.2029 590.0
44.2554 574.0
44.3079 548.0
44.3604 586.0
44.413 576.0
44.4655 568.0
44.518 603.0
44.5705 575.0
44.6231 584.0
44.6756 590.0
44.7281 601.0
44.7806 648.0
44.8331 601.0
44.8857 642.0
44.9382 630.0
44.9907 671.0
45.0432 643.0
45.0957 609.0
45.1483 610.0
45.2008 658.0
45.2533 717.0
45.3058 662.0
45.3584 686.0
45.4109 634.0
45.4634 697.0
45.5159 768.0
45.5684 1013.0
45.621 735.0
45.6735 708.0
45.726 709.0
45.7785 778.0
45.831 751.0
45.8836 739.0
45.9361 767.0
45.9886 766.0
46.0411 794.0
46.0936 760.0
46.1462 755.0
46.1987 996.0
46.2512 863.0
46.3037 936.0
46.3563 865.0
46.4088 884.0
46.4613 887.0
46.5138 992.0
46.5663 834.0
46.6189 952.0
46.6714 941.0
46.7239 961.0
46.7764 907.0
46.8289 872.0
46.8815 1000.0
46.934 1032.0
46.9865 836.0
47.039 866.0
47.0915 914.0
47.1441 899.0
47.1966 1416.0
47.2491 1365.0
47.3016 1237.0
47.3542 1489.0
47.4067 1252.0
47.4592 983.0
47.5117 1177.0
47.5642 1052.0
47.6168 1053.0
47.6693 1150.0
47.7218 1140.0
47.7743 1083.0
47.8268 1183.0
47.8794 1196.0
47.9319 1787.0
47.9844 1217.0
48.0369 1336.0
48.0895 1546.0
48.142 1225.0
48.1945 1398.0
48.247 1168.0
48.2995 1299.0
48.3521 2196.0
48.4046 1130.0
48.4571 1187.0
48.5096 974.0
48.5621 917.0
48.6147 726.0
48.6672 659.0
48.7197 541.0
48.7722 544.0
48.8247 437.0
48.8773 454.0
48.9298 478.0
48.9823 483.0
49.0348 448.0
49.0874 448.0
49.1399 493.0
49.1924 455.0
49.2449 490.0
49.2974 505.0
49.35 442.0
49.4025 450.0
49.455 442.0
49.5075 495.0
49.56 439.0
49.6126 455.0
49.6651 436.0
49.7176 423.0
49.7701 451.0
49.8226 441.0
49.8752 487.0
49.9277 408.0
49.9802 446.0
50.0065 427.0